STUDYID,DOMAIN,USUBJID,AESEQ,AETERM,AESTDTC,AEENDTC,AESTDY,AEENDY,AESER,AESEV,AEOUT,AEACN,AEREL,AEPRESP,AEONGO,AETOXGR,AESOC,SUBJID
VIRALBLOCK01,AE,VIRALBLOCK01-002,1,Cough,2023-01-08,2023-01-26,8,26,N,MILD,RECOVERED,DRUG WITHDRAWN,POSSIBLY RELATED,UNKNOWN,Y,,Respiratory disorders,002
VIRALBLOCK01,AE,VIRALBLOCK01-002,1,Cough,2023-01-08,2023-01-26,8,26,N,MILD,RECOVERED,DRUG WITHDRAWN,POSSIBLY RELATED,Y,Y,,Respiratory disorders,002
VIRALBLOCK01,AE,VIRALBLOCK01-002,1,Cough,2023-01-08,2023-01-26,8,26,N,MILD,RECOVERED,DRUG WITHDRAWN,POSSIBLY RELATED,N,Y,,Respiratory disorders,002
VIRALBLOCK01,AE,VIRALBLOCK01-003,1,Headache,2023-01-10,2023-02-01,10,32,N,MILD,RECOVERING,DOSE REDUCED,POSSIBLY RELATED,N,,,Nervous system disorders,003
VIRALBLOCK01,AE,VIRALBLOCK01-003,1,Headache,2023-01-10,2023-02-01,10,32,N,MILD,RECOVERING,DOSE REDUCED,POSSIBLY RELATED,UNKNOWN,,,Nervous system disorders,003
VIRALBLOCK01,AE,VIRALBLOCK01-003,1,Headache,2023-01-10,2023-02-01,10,32,N,MILD,RECOVERING,DOSE REDUCED,POSSIBLY RELATED,Y,,,Nervous system disorders,003
VIRALBLOCK01,AE,VIRALBLOCK01-004,1,Rash,2023-01-13,2023-01-30,13,30,N,MODERATE,RECOVERED,DRUG WITHDRAWN,NOT RELATED,UNKNOWN,Y,,Skin and subcutaneous tissue disorders,004
VIRALBLOCK01,AE,VIRALBLOCK01-004,1,Rash,2023-01-13,2023-01-30,13,30,N,MODERATE,RECOVERED,DRUG WITHDRAWN,NOT RELATED,N,Y,,Skin and subcutaneous tissue disorders,004
VIRALBLOCK01,AE,VIRALBLOCK01-004,1,Rash,2023-01-13,2023-01-30,13,30,N,MODERATE,RECOVERED,DRUG WITHDRAWN,NOT RELATED,Y,Y,,Skin and subcutaneous tissue disorders,004
VIRALBLOCK01,AE,VIRALBLOCK01-004,1,Fatigue,2023-01-14,2023-01-21,14,21,N,MILD,NOT RECOVERED,DOSE REDUCED,POSSIBLY RELATED,N,Y,,General disorders and administration site conditions,004
VIRALBLOCK01,AE,VIRALBLOCK01-004,1,Fatigue,2023-01-14,2023-01-21,14,21,N,MILD,NOT RECOVERED,DOSE REDUCED,POSSIBLY RELATED,UNKNOWN,Y,,General disorders and administration site conditions,004
VIRALBLOCK01,AE,VIRALBLOCK01-004,1,Fatigue,2023-01-14,2023-01-21,14,21,N,MILD,NOT RECOVERED,DOSE REDUCED,POSSIBLY RELATED,Y,Y,,General disorders and administration site conditions,004
VIRALBLOCK01,AE,VIRALBLOCK01-005,1,Fatigue,2023-01-10,2023-01-29,10,29,N,MODERATE,RECOVERING,NONE,POSSIBLY RELATED,UNKNOWN,Y,,General disorders and administration site conditions,005
VIRALBLOCK01,AE,VIRALBLOCK01-005,1,Fatigue,2023-01-10,2023-01-29,10,29,N,MODERATE,RECOVERING,NONE,POSSIBLY RELATED,N,Y,,General disorders and administration site conditions,005
VIRALBLOCK01,AE,VIRALBLOCK01-005,1,Fatigue,2023-01-10,2023-01-29,10,29,N,MODERATE,RECOVERING,NONE,POSSIBLY RELATED,Y,Y,,General disorders and administration site conditions,005
VIRALBLOCK01,AE,VIRALBLOCK01-007,1,Fever,2023-01-08,2023-01-28,8,28,N,MODERATE,RECOVERING,DRUG WITHDRAWN,POSSIBLY RELATED,Y,Y,,General disorders and administration site conditions,007
VIRALBLOCK01,AE,VIRALBLOCK01-007,1,Fever,2023-01-08,2023-01-28,8,28,N,MODERATE,RECOVERING,DRUG WITHDRAWN,POSSIBLY RELATED,UNKNOWN,Y,,General disorders and administration site conditions,007
VIRALBLOCK01,AE,VIRALBLOCK01-007,1,Fever,2023-01-08,2023-01-28,8,28,N,MODERATE,RECOVERING,DRUG WITHDRAWN,POSSIBLY RELATED,N,Y,,General disorders and administration site conditions,007
VIRALBLOCK01,AE,VIRALBLOCK01-008,1,Headache,2023-01-14,2023-01-31,14,31,N,MILD,RECOVERED,DRUG WITHDRAWN,RELATED,N,,,Nervous system disorders,008
VIRALBLOCK01,AE,VIRALBLOCK01-008,1,Headache,2023-01-14,2023-01-31,14,31,N,MILD,RECOVERED,DRUG WITHDRAWN,RELATED,UNKNOWN,,,Nervous system disorders,008
VIRALBLOCK01,AE,VIRALBLOCK01-008,1,Headache,2023-01-14,2023-01-31,14,31,N,MILD,RECOVERED,DRUG WITHDRAWN,RELATED,Y,,,Nervous system disorders,008
VIRALBLOCK01,AE,VIRALBLOCK01-009,1,Fatigue,2023-01-12,2023-01-30,12,30,N,SEVERE,RECOVERING,DOSE REDUCED,RELATED,Y,,,General disorders and administration site conditions,009
VIRALBLOCK01,AE,VIRALBLOCK01-009,1,Fatigue,2023-01-12,2023-01-30,12,30,N,SEVERE,RECOVERING,DOSE REDUCED,RELATED,UNKNOWN,,,General disorders and administration site conditions,009
VIRALBLOCK01,AE,VIRALBLOCK01-009,1,Fatigue,2023-01-12,2023-01-30,12,30,N,SEVERE,RECOVERING,DOSE REDUCED,RELATED,N,,,General disorders and administration site conditions,009
VIRALBLOCK01,AE,VIRALBLOCK01-009,1,Nausea,2023-01-13,2023-01-25,13,25,N,MILD,RECOVERED,DOSE REDUCED,RELATED,N,,,Gastrointestinal disorders,009
VIRALBLOCK01,AE,VIRALBLOCK01-009,1,Nausea,2023-01-13,2023-01-25,13,25,N,MILD,RECOVERED,DOSE REDUCED,RELATED,UNKNOWN,,,Gastrointestinal disorders,009
VIRALBLOCK01,AE,VIRALBLOCK01-009,1,Nausea,2023-01-13,2023-01-25,13,25,N,MILD,RECOVERED,DOSE REDUCED,RELATED,Y,,,Gastrointestinal disorders,009
VIRALBLOCK01,AE,VIRALBLOCK01-010,1,Nausea,2023-01-18,2023-01-26,18,26,N,MODERATE,RECOVERING,NONE,NOT RELATED,UNKNOWN,,,Gastrointestinal disorders,010
VIRALBLOCK01,AE,VIRALBLOCK01-010,1,Nausea,2023-01-18,2023-01-26,18,26,N,MODERATE,RECOVERING,NONE,NOT RELATED,N,,,Gastrointestinal disorders,010
VIRALBLOCK01,AE,VIRALBLOCK01-010,1,Nausea,2023-01-18,2023-01-26,18,26,N,MODERATE,RECOVERING,NONE,NOT RELATED,Y,,,Gastrointestinal disorders,010
VIRALBLOCK01,AE,VIRALBLOCK01-011,1,Headache,2023-01-05,2023-01-23,5,23,N,MILD,RECOVERED,DOSE REDUCED,POSSIBLY RELATED,Y,Y,,Nervous system disorders,011
VIRALBLOCK01,AE,VIRALBLOCK01-011,1,Headache,2023-01-05,2023-01-23,5,23,N,MILD,RECOVERED,DOSE REDUCED,POSSIBLY RELATED,UNKNOWN,Y,,Nervous system disorders,011
VIRALBLOCK01,AE,VIRALBLOCK01-011,1,Headache,2023-01-05,2023-01-23,5,23,N,MILD,RECOVERED,DOSE REDUCED,POSSIBLY RELATED,N,Y,,Nervous system disorders,011
VIRALBLOCK01,AE,VIRALBLOCK01-013,1,Cough,2023-01-05,2023-01-16,5,16,N,MILD,RECOVERED,DOSE REDUCED,POSSIBLY RELATED,UNKNOWN,Y,,Respiratory disorders,013
VIRALBLOCK01,AE,VIRALBLOCK01-013,1,Cough,2023-01-05,2023-01-16,5,16,N,MILD,RECOVERED,DOSE REDUCED,POSSIBLY RELATED,N,Y,,Respiratory disorders,013
VIRALBLOCK01,AE,VIRALBLOCK01-013,1,Cough,2023-01-05,2023-01-16,5,16,N,MILD,RECOVERED,DOSE REDUCED,POSSIBLY RELATED,Y,Y,,Respiratory disorders,013
VIRALBLOCK01,AE,VIRALBLOCK01-013,1,Nausea,2023-01-07,2023-01-27,7,27,N,MODERATE,RECOVERED,DRUG WITHDRAWN,POSSIBLY RELATED,N,Y,,Gastrointestinal disorders,013
VIRALBLOCK01,AE,VIRALBLOCK01-013,1,Nausea,2023-01-07,2023-01-27,7,27,N,MODERATE,RECOVERED,DRUG WITHDRAWN,POSSIBLY RELATED,Y,Y,,Gastrointestinal disorders,013
VIRALBLOCK01,AE,VIRALBLOCK01-013,1,Nausea,2023-01-07,2023-01-27,7,27,N,MODERATE,RECOVERED,DRUG WITHDRAWN,POSSIBLY RELATED,UNKNOWN,Y,,Gastrointestinal disorders,013
VIRALBLOCK01,AE,VIRALBLOCK01-013,1,Headache,2023-01-08,2023-01-26,8,26,N,MILD,RECOVERING,NONE,RELATED,UNKNOWN,,,Nervous system disorders,013
VIRALBLOCK01,AE,VIRALBLOCK01-013,1,Headache,2023-01-08,2023-01-26,8,26,N,MILD,RECOVERING,NONE,RELATED,Y,,,Nervous system disorders,013
VIRALBLOCK01,AE,VIRALBLOCK01-013,1,Headache,2023-01-08,2023-01-26,8,26,N,MILD,RECOVERING,NONE,RELATED,N,,,Nervous system disorders,013
VIRALBLOCK01,AE,VIRALBLOCK01-014,1,Cough,2023-01-13,2023-01-23,13,23,N,MILD,RECOVERED,DRUG WITHDRAWN,NOT RELATED,Y,,,Respiratory disorders,014
VIRALBLOCK01,AE,VIRALBLOCK01-014,1,Cough,2023-01-13,2023-01-23,13,23,N,MILD,RECOVERED,DRUG WITHDRAWN,NOT RELATED,UNKNOWN,,,Respiratory disorders,014
VIRALBLOCK01,AE,VIRALBLOCK01-014,1,Cough,2023-01-13,2023-01-23,13,23,N,MILD,RECOVERED,DRUG WITHDRAWN,NOT RELATED,N,,,Respiratory disorders,014
VIRALBLOCK01,AE,VIRALBLOCK01-014,1,Nausea,2023-01-15,2023-01-21,15,21,N,MODERATE,RECOVERED,NONE,NOT RELATED,UNKNOWN,Y,,Gastrointestinal disorders,014
VIRALBLOCK01,AE,VIRALBLOCK01-014,1,Nausea,2023-01-15,2023-01-21,15,21,N,MODERATE,RECOVERED,NONE,NOT RELATED,N,Y,,Gastrointestinal disorders,014
VIRALBLOCK01,AE,VIRALBLOCK01-014,1,Nausea,2023-01-15,2023-01-21,15,21,N,MODERATE,RECOVERED,NONE,NOT RELATED,Y,Y,,Gastrointestinal disorders,014
VIRALBLOCK01,AE,VIRALBLOCK01-014,1,Fatigue,2023-01-16,2023-01-18,16,18,N,SEVERE,RECOVERED,DRUG WITHDRAWN,RELATED,Y,Y,,General disorders and administration site conditions,014
VIRALBLOCK01,AE,VIRALBLOCK01-014,1,Fatigue,2023-01-16,2023-01-18,16,18,N,SEVERE,RECOVERED,DRUG WITHDRAWN,RELATED,UNKNOWN,Y,,General disorders and administration site conditions,014
VIRALBLOCK01,AE,VIRALBLOCK01-014,1,Fatigue,2023-01-16,2023-01-18,16,18,N,SEVERE,RECOVERED,DRUG WITHDRAWN,RELATED,N,Y,,General disorders and administration site conditions,014
VIRALBLOCK01,AE,VIRALBLOCK01-015,1,Cough,2023-01-11,2023-01-21,11,21,N,MODERATE,RECOVERED,NONE,POSSIBLY RELATED,UNKNOWN,,,Respiratory disorders,015
VIRALBLOCK01,AE,VIRALBLOCK01-015,1,Cough,2023-01-11,2023-01-21,11,21,N,MODERATE,RECOVERED,NONE,POSSIBLY RELATED,N,,,Respiratory disorders,015
VIRALBLOCK01,AE,VIRALBLOCK01-015,1,Cough,2023-01-11,2023-01-21,11,21,N,MODERATE,RECOVERED,NONE,POSSIBLY RELATED,Y,,,Respiratory disorders,015
VIRALBLOCK01,AE,VIRALBLOCK01-015,1,Fever,2023-01-13,2023-01-29,13,29,N,MODERATE,RECOVERED,DRUG WITHDRAWN,POSSIBLY RELATED,N,,,General disorders and administration site conditions,015
VIRALBLOCK01,AE,VIRALBLOCK01-015,1,Fever,2023-01-13,2023-01-29,13,29,N,MODERATE,RECOVERED,DRUG WITHDRAWN,POSSIBLY RELATED,UNKNOWN,,,General disorders and administration site conditions,015
VIRALBLOCK01,AE,VIRALBLOCK01-015,1,Fever,2023-01-13,2023-01-29,13,29,N,MODERATE,RECOVERED,DRUG WITHDRAWN,POSSIBLY RELATED,Y,,,General disorders and administration site conditions,015
VIRALBLOCK01,AE,VIRALBLOCK01-015,1,Rash,2023-01-15,2023-01-20,15,20,N,MILD,RECOVERED,NONE,POSSIBLY RELATED,UNKNOWN,,,Skin and subcutaneous tissue disorders,015
VIRALBLOCK01,AE,VIRALBLOCK01-015,1,Rash,2023-01-15,2023-01-20,15,20,N,MILD,RECOVERED,NONE,POSSIBLY RELATED,N,,,Skin and subcutaneous tissue disorders,015
VIRALBLOCK01,AE,VIRALBLOCK01-015,1,Rash,2023-01-15,2023-01-20,15,20,N,MILD,RECOVERED,NONE,POSSIBLY RELATED,Y,,,Skin and subcutaneous tissue disorders,015
VIRALBLOCK01,AE,VIRALBLOCK01-017,1,Fever,2023-01-13,2023-01-25,13,25,N,MILD,RECOVERED,NONE,NOT RELATED,UNKNOWN,,,General disorders and administration site conditions,017
VIRALBLOCK01,AE,VIRALBLOCK01-017,1,Fever,2023-01-13,2023-01-25,13,25,N,MILD,RECOVERED,NONE,NOT RELATED,N,,,General disorders and administration site conditions,017
VIRALBLOCK01,AE,VIRALBLOCK01-017,1,Fever,2023-01-13,2023-01-25,13,25,N,MILD,RECOVERED,NONE,NOT RELATED,Y,,,General disorders and administration site conditions,017
VIRALBLOCK01,AE,VIRALBLOCK01-017,1,Rash,2023-01-17,2023-01-29,17,29,N,MILD,RECOVERED,DRUG WITHDRAWN,NOT RELATED,Y,Y,,Skin and subcutaneous tissue disorders,017
VIRALBLOCK01,AE,VIRALBLOCK01-017,1,Rash,2023-01-17,2023-01-29,17,29,N,MILD,RECOVERED,DRUG WITHDRAWN,NOT RELATED,N,Y,,Skin and subcutaneous tissue disorders,017
VIRALBLOCK01,AE,VIRALBLOCK01-017,1,Rash,2023-01-17,2023-01-29,17,29,N,MILD,RECOVERED,DRUG WITHDRAWN,NOT RELATED,UNKNOWN,Y,,Skin and subcutaneous tissue disorders,017
VIRALBLOCK01,AE,VIRALBLOCK01-018,1,Fever,2023-01-02,2023-01-27,2,27,N,MILD,RECOVERED,DRUG WITHDRAWN,POSSIBLY RELATED,UNKNOWN,,,General disorders and administration site conditions,018
VIRALBLOCK01,AE,VIRALBLOCK01-018,1,Fever,2023-01-02,2023-01-27,2,27,N,MILD,RECOVERED,DRUG WITHDRAWN,POSSIBLY RELATED,N,,,General disorders and administration site conditions,018
VIRALBLOCK01,AE,VIRALBLOCK01-018,1,Fever,2023-01-02,2023-01-27,2,27,N,MILD,RECOVERED,DRUG WITHDRAWN,POSSIBLY RELATED,Y,,,General disorders and administration site conditions,018
VIRALBLOCK01,AE,VIRALBLOCK01-018,1,Fatigue,2023-01-13,2023-01-19,13,19,N,SEVERE,RECOVERED,NONE,RELATED,Y,,,General disorders and administration site conditions,018
VIRALBLOCK01,AE,VIRALBLOCK01-018,1,Fatigue,2023-01-13,2023-01-19,13,19,N,SEVERE,RECOVERED,NONE,RELATED,UNKNOWN,,,General disorders and administration site conditions,018
VIRALBLOCK01,AE,VIRALBLOCK01-018,1,Fatigue,2023-01-13,2023-01-19,13,19,N,SEVERE,RECOVERED,NONE,RELATED,N,,,General disorders and administration site conditions,018
VIRALBLOCK01,AE,VIRALBLOCK01-019,1,Cough,2023-01-02,2023-01-28,2,28,N,MILD,RECOVERED,DRUG WITHDRAWN,RELATED,UNKNOWN,Y,,Respiratory disorders,019
VIRALBLOCK01,AE,VIRALBLOCK01-019,1,Cough,2023-01-02,2023-01-28,2,28,N,MILD,RECOVERED,DRUG WITHDRAWN,RELATED,Y,Y,,Respiratory disorders,019
VIRALBLOCK01,AE,VIRALBLOCK01-019,1,Cough,2023-01-02,2023-01-28,2,28,N,MILD,RECOVERED,DRUG WITHDRAWN,RELATED,N,Y,,Respiratory disorders,019
VIRALBLOCK01,AE,VIRALBLOCK01-019,1,Fatigue,2023-01-03,2023-01-21,3,21,N,MODERATE,NOT RECOVERED,DRUG WITHDRAWN,NOT RELATED,UNKNOWN,,,General disorders and administration site conditions,019
VIRALBLOCK01,AE,VIRALBLOCK01-019,1,Fatigue,2023-01-03,2023-01-21,3,21,N,MODERATE,NOT RECOVERED,DRUG WITHDRAWN,NOT RELATED,Y,,,General disorders and administration site conditions,019
VIRALBLOCK01,AE,VIRALBLOCK01-019,1,Fatigue,2023-01-03,2023-01-21,3,21,N,MODERATE,NOT RECOVERED,DRUG WITHDRAWN,NOT RELATED,N,,,General disorders and administration site conditions,019
VIRALBLOCK01,AE,VIRALBLOCK01-019,1,Fatigue,2023-01-09,2023-01-27,9,27,N,MILD,RECOVERING,NONE,RELATED,UNKNOWN,,,General disorders and administration site conditions,019
VIRALBLOCK01,AE,VIRALBLOCK01-019,1,Fatigue,2023-01-09,2023-01-27,9,27,N,MILD,RECOVERING,NONE,RELATED,N,,,General disorders and administration site conditions,019
VIRALBLOCK01,AE,VIRALBLOCK01-019,1,Fatigue,2023-01-09,2023-01-27,9,27,N,MILD,RECOVERING,NONE,RELATED,Y,,,General disorders and administration site conditions,019
VIRALBLOCK01,AE,VIRALBLOCK01-020,1,Fever,2023-01-24,2023-01-31,24,31,N,SEVERE,RECOVERED,DRUG WITHDRAWN,RELATED,N,,,General disorders and administration site conditions,020
VIRALBLOCK01,AE,VIRALBLOCK01-020,1,Fever,2023-01-24,2023-01-31,24,31,N,SEVERE,RECOVERED,DRUG WITHDRAWN,RELATED,Y,,,General disorders and administration site conditions,020
VIRALBLOCK01,AE,VIRALBLOCK01-020,1,Fever,2023-01-24,2023-01-31,24,31,N,SEVERE,RECOVERED,DRUG WITHDRAWN,RELATED,UNKNOWN,,,General disorders and administration site conditions,020
VIRALBLOCK01,AE,VIRALBLOCK01-022,1,Fatigue,2023-01-11,2023-02-03,11,34,N,MODERATE,RECOVERING,NONE,RELATED,Y,Y,,General disorders and administration site conditions,022
VIRALBLOCK01,AE,VIRALBLOCK01-022,1,Fatigue,2023-01-11,2023-02-03,11,34,N,MODERATE,RECOVERING,NONE,RELATED,UNKNOWN,Y,,General disorders and administration site conditions,022
VIRALBLOCK01,AE,VIRALBLOCK01-022,1,Fatigue,2023-01-11,2023-02-03,11,34,N,MODERATE,RECOVERING,NONE,RELATED,N,Y,,General disorders and administration site conditions,022
VIRALBLOCK01,AE,VIRALBLOCK01-022,1,Rash,2023-01-17,2023-01-25,17,25,Y,MODERATE,RECOVERED,DOSE REDUCED,POSSIBLY RELATED,UNKNOWN,,,Skin and subcutaneous tissue disorders,022
VIRALBLOCK01,AE,VIRALBLOCK01-022,1,Rash,2023-01-17,2023-01-25,17,25,Y,MODERATE,RECOVERED,DOSE REDUCED,POSSIBLY RELATED,Y,,,Skin and subcutaneous tissue disorders,022
VIRALBLOCK01,AE,VIRALBLOCK01-022,1,Rash,2023-01-17,2023-01-25,17,25,Y,MODERATE,RECOVERED,DOSE REDUCED,POSSIBLY RELATED,N,,,Skin and subcutaneous tissue disorders,022
VIRALBLOCK01,AE,VIRALBLOCK01-023,1,Fatigue,2023-01-05,2023-01-21,5,21,N,MILD,RECOVERING,DRUG WITHDRAWN,RELATED,Y,,,General disorders and administration site conditions,023
VIRALBLOCK01,AE,VIRALBLOCK01-023,1,Fatigue,2023-01-05,2023-01-21,5,21,N,MILD,RECOVERING,DRUG WITHDRAWN,RELATED,UNKNOWN,,,General disorders and administration site conditions,023
VIRALBLOCK01,AE,VIRALBLOCK01-023,1,Fatigue,2023-01-05,2023-01-21,5,21,N,MILD,RECOVERING,DRUG WITHDRAWN,RELATED,N,,,General disorders and administration site conditions,023
VIRALBLOCK01,AE,VIRALBLOCK01-025,1,Fatigue,2023-01-16,2023-02-01,16,32,N,MODERATE,NOT RECOVERED,DOSE REDUCED,NOT RELATED,N,,,General disorders and administration site conditions,025
VIRALBLOCK01,AE,VIRALBLOCK01-025,1,Fatigue,2023-01-16,2023-02-01,16,32,N,MODERATE,NOT RECOVERED,DOSE REDUCED,NOT RELATED,Y,,,General disorders and administration site conditions,025
VIRALBLOCK01,AE,VIRALBLOCK01-025,1,Fatigue,2023-01-16,2023-02-01,16,32,N,MODERATE,NOT RECOVERED,DOSE REDUCED,NOT RELATED,UNKNOWN,,,General disorders and administration site conditions,025
VIRALBLOCK01,AE,VIRALBLOCK01-025,1,Fatigue,2023-01-23,2023-02-07,23,38,N,MODERATE,RECOVERED,DRUG WITHDRAWN,POSSIBLY RELATED,N,,,General disorders and administration site conditions,025
VIRALBLOCK01,AE,VIRALBLOCK01-025,1,Fatigue,2023-01-23,2023-02-07,23,38,N,MODERATE,RECOVERED,DRUG WITHDRAWN,POSSIBLY RELATED,Y,,,General disorders and administration site conditions,025
VIRALBLOCK01,AE,VIRALBLOCK01-025,1,Fatigue,2023-01-23,2023-02-07,23,38,N,MODERATE,RECOVERED,DRUG WITHDRAWN,POSSIBLY RELATED,UNKNOWN,,,General disorders and administration site conditions,025
VIRALBLOCK01,AE,VIRALBLOCK01-026,1,Headache,2023-01-07,2023-01-24,7,24,N,MODERATE,RECOVERED,DRUG WITHDRAWN,RELATED,N,Y,,Nervous system disorders,026
VIRALBLOCK01,AE,VIRALBLOCK01-026,1,Headache,2023-01-07,2023-01-24,7,24,N,MODERATE,RECOVERED,DRUG WITHDRAWN,RELATED,Y,Y,,Nervous system disorders,026
VIRALBLOCK01,AE,VIRALBLOCK01-026,1,Headache,2023-01-07,2023-01-24,7,24,N,MODERATE,RECOVERED,DRUG WITHDRAWN,RELATED,UNKNOWN,Y,,Nervous system disorders,026
VIRALBLOCK01,AE,VIRALBLOCK01-027,1,Fatigue,2023-01-13,2023-01-28,13,28,N,MODERATE,RECOVERED,DRUG WITHDRAWN,POSSIBLY RELATED,N,Y,,General disorders and administration site conditions,027
VIRALBLOCK01,AE,VIRALBLOCK01-027,1,Fatigue,2023-01-13,2023-01-28,13,28,N,MODERATE,RECOVERED,DRUG WITHDRAWN,POSSIBLY RELATED,UNKNOWN,Y,,General disorders and administration site conditions,027
VIRALBLOCK01,AE,VIRALBLOCK01-027,1,Fatigue,2023-01-13,2023-01-28,13,28,N,MODERATE,RECOVERED,DRUG WITHDRAWN,POSSIBLY RELATED,Y,Y,,General disorders and administration site conditions,027
VIRALBLOCK01,AE,VIRALBLOCK01-027,1,Headache,2023-01-14,2023-01-26,14,26,N,MODERATE,RECOVERING,NONE,POSSIBLY RELATED,N,,,Nervous system disorders,027
VIRALBLOCK01,AE,VIRALBLOCK01-027,1,Headache,2023-01-14,2023-01-26,14,26,N,MODERATE,RECOVERING,NONE,POSSIBLY RELATED,Y,,,Nervous system disorders,027
VIRALBLOCK01,AE,VIRALBLOCK01-027,1,Headache,2023-01-14,2023-01-26,14,26,N,MODERATE,RECOVERING,NONE,POSSIBLY RELATED,UNKNOWN,,,Nervous system disorders,027
VIRALBLOCK01,AE,VIRALBLOCK01-027,1,Fever,2023-01-19,2023-02-06,19,37,N,MODERATE,RECOVERED,DRUG WITHDRAWN,RELATED,N,Y,,General disorders and administration site conditions,027
VIRALBLOCK01,AE,VIRALBLOCK01-027,1,Fever,2023-01-19,2023-02-06,19,37,N,MODERATE,RECOVERED,DRUG WITHDRAWN,RELATED,UNKNOWN,Y,,General disorders and administration site conditions,027
VIRALBLOCK01,AE,VIRALBLOCK01-027,1,Fever,2023-01-19,2023-02-06,19,37,N,MODERATE,RECOVERED,DRUG WITHDRAWN,RELATED,Y,Y,,General disorders and administration site conditions,027
VIRALBLOCK01,AE,VIRALBLOCK01-028,1,Fatigue,2023-01-07,2023-01-31,7,31,N,MILD,RECOVERED,DOSE REDUCED,RELATED,UNKNOWN,,,General disorders and administration site conditions,028
VIRALBLOCK01,AE,VIRALBLOCK01-028,1,Fatigue,2023-01-07,2023-01-31,7,31,N,MILD,RECOVERED,DOSE REDUCED,RELATED,Y,,,General disorders and administration site conditions,028
VIRALBLOCK01,AE,VIRALBLOCK01-028,1,Fatigue,2023-01-07,2023-01-31,7,31,N,MILD,RECOVERED,DOSE REDUCED,RELATED,N,,,General disorders and administration site conditions,028
VIRALBLOCK01,AE,VIRALBLOCK01-028,1,Headache,2023-01-08,2023-02-03,8,34,N,MODERATE,NOT RECOVERED,DRUG WITHDRAWN,POSSIBLY RELATED,Y,Y,,Nervous system disorders,028
VIRALBLOCK01,AE,VIRALBLOCK01-028,1,Headache,2023-01-08,2023-02-03,8,34,N,MODERATE,NOT RECOVERED,DRUG WITHDRAWN,POSSIBLY RELATED,UNKNOWN,Y,,Nervous system disorders,028
VIRALBLOCK01,AE,VIRALBLOCK01-028,1,Headache,2023-01-08,2023-02-03,8,34,N,MODERATE,NOT RECOVERED,DRUG WITHDRAWN,POSSIBLY RELATED,N,Y,,Nervous system disorders,028
VIRALBLOCK01,AE,VIRALBLOCK01-028,1,Cough,2023-01-12,2023-01-31,12,31,N,MILD,RECOVERED,DOSE REDUCED,NOT RELATED,N,Y,,Respiratory disorders,028
VIRALBLOCK01,AE,VIRALBLOCK01-028,1,Cough,2023-01-12,2023-01-31,12,31,N,MILD,RECOVERED,DOSE REDUCED,NOT RELATED,Y,Y,,Respiratory disorders,028
VIRALBLOCK01,AE,VIRALBLOCK01-028,1,Cough,2023-01-12,2023-01-31,12,31,N,MILD,RECOVERED,DOSE REDUCED,NOT RELATED,UNKNOWN,Y,,Respiratory disorders,028
VIRALBLOCK01,AE,VIRALBLOCK01-029,1,Cough,2023-01-11,2023-02-03,11,34,N,MODERATE,RECOVERED,DOSE REDUCED,POSSIBLY RELATED,N,,,Respiratory disorders,029
VIRALBLOCK01,AE,VIRALBLOCK01-029,1,Cough,2023-01-11,2023-02-03,11,34,N,MODERATE,RECOVERED,DOSE REDUCED,POSSIBLY RELATED,UNKNOWN,,,Respiratory disorders,029
VIRALBLOCK01,AE,VIRALBLOCK01-029,1,Cough,2023-01-11,2023-02-03,11,34,N,MODERATE,RECOVERED,DOSE REDUCED,POSSIBLY RELATED,Y,,,Respiratory disorders,029
VIRALBLOCK01,AE,VIRALBLOCK01-031,1,Headache,2023-01-15,2023-01-20,15,20,N,MILD,RECOVERING,NONE,POSSIBLY RELATED,Y,,,Nervous system disorders,031
VIRALBLOCK01,AE,VIRALBLOCK01-031,1,Headache,2023-01-15,2023-01-20,15,20,N,MILD,RECOVERING,NONE,POSSIBLY RELATED,N,,,Nervous system disorders,031
VIRALBLOCK01,AE,VIRALBLOCK01-031,1,Headache,2023-01-15,2023-01-20,15,20,N,MILD,RECOVERING,NONE,POSSIBLY RELATED,UNKNOWN,,,Nervous system disorders,031
VIRALBLOCK01,AE,VIRALBLOCK01-032,1,Nausea,2023-01-17,2023-01-19,17,19,N,MILD,RECOVERED,NONE,NOT RELATED,Y,,,Gastrointestinal disorders,032
VIRALBLOCK01,AE,VIRALBLOCK01-032,1,Nausea,2023-01-17,2023-01-19,17,19,N,MILD,RECOVERED,NONE,NOT RELATED,UNKNOWN,,,Gastrointestinal disorders,032
VIRALBLOCK01,AE,VIRALBLOCK01-032,1,Nausea,2023-01-17,2023-01-19,17,19,N,MILD,RECOVERED,NONE,NOT RELATED,N,,,Gastrointestinal disorders,032
VIRALBLOCK01,AE,VIRALBLOCK01-035,1,Fever,2023-01-14,2023-02-02,14,33,N,MILD,RECOVERING,DOSE REDUCED,POSSIBLY RELATED,UNKNOWN,,,General disorders and administration site conditions,035
VIRALBLOCK01,AE,VIRALBLOCK01-035,1,Fever,2023-01-14,2023-02-02,14,33,N,MILD,RECOVERING,DOSE REDUCED,POSSIBLY RELATED,Y,,,General disorders and administration site conditions,035
VIRALBLOCK01,AE,VIRALBLOCK01-035,1,Fever,2023-01-14,2023-02-02,14,33,N,MILD,RECOVERING,DOSE REDUCED,POSSIBLY RELATED,N,,,General disorders and administration site conditions,035
VIRALBLOCK01,AE,VIRALBLOCK01-035,1,Rash,2023-01-19,2023-02-01,19,32,N,MILD,NOT RECOVERED,DOSE REDUCED,NOT RELATED,Y,,,Skin and subcutaneous tissue disorders,035
VIRALBLOCK01,AE,VIRALBLOCK01-035,1,Rash,2023-01-19,2023-02-01,19,32,N,MILD,NOT RECOVERED,DOSE REDUCED,NOT RELATED,N,,,Skin and subcutaneous tissue disorders,035
VIRALBLOCK01,AE,VIRALBLOCK01-035,1,Rash,2023-01-19,2023-02-01,19,32,N,MILD,NOT RECOVERED,DOSE REDUCED,NOT RELATED,UNKNOWN,,,Skin and subcutaneous tissue disorders,035
VIRALBLOCK01,AE,VIRALBLOCK01-035,1,Headache,2023-01-25,2023-01-31,25,31,N,MILD,RECOVERING,DRUG WITHDRAWN,RELATED,N,Y,,Nervous system disorders,035
VIRALBLOCK01,AE,VIRALBLOCK01-035,1,Headache,2023-01-25,2023-01-31,25,31,N,MILD,RECOVERING,DRUG WITHDRAWN,RELATED,Y,Y,,Nervous system disorders,035
VIRALBLOCK01,AE,VIRALBLOCK01-035,1,Headache,2023-01-25,2023-01-31,25,31,N,MILD,RECOVERING,DRUG WITHDRAWN,RELATED,UNKNOWN,Y,,Nervous system disorders,035
VIRALBLOCK01,AE,VIRALBLOCK01-036,1,Fatigue,2023-01-17,2023-01-30,17,30,N,MILD,RECOVERED,NONE,NOT RELATED,N,,,General disorders and administration site conditions,036
VIRALBLOCK01,AE,VIRALBLOCK01-036,1,Fatigue,2023-01-17,2023-01-30,17,30,N,MILD,RECOVERED,NONE,NOT RELATED,UNKNOWN,,,General disorders and administration site conditions,036
VIRALBLOCK01,AE,VIRALBLOCK01-036,1,Fatigue,2023-01-17,2023-01-30,17,30,N,MILD,RECOVERED,NONE,NOT RELATED,Y,,,General disorders and administration site conditions,036
VIRALBLOCK01,AE,VIRALBLOCK01-039,1,Headache,2023-01-16,2023-01-18,16,18,N,MODERATE,RECOVERED,DRUG WITHDRAWN,RELATED,Y,Y,,Nervous system disorders,039
VIRALBLOCK01,AE,VIRALBLOCK01-039,1,Headache,2023-01-16,2023-01-18,16,18,N,MODERATE,RECOVERED,DRUG WITHDRAWN,RELATED,N,Y,,Nervous system disorders,039
VIRALBLOCK01,AE,VIRALBLOCK01-039,1,Headache,2023-01-16,2023-01-18,16,18,N,MODERATE,RECOVERED,DRUG WITHDRAWN,RELATED,UNKNOWN,Y,,Nervous system disorders,039
VIRALBLOCK01,AE,VIRALBLOCK01-040,1,Nausea,2023-01-11,2023-01-30,11,30,N,MILD,RECOVERED,DOSE REDUCED,RELATED,Y,,,Gastrointestinal disorders,040
VIRALBLOCK01,AE,VIRALBLOCK01-040,1,Nausea,2023-01-11,2023-01-30,11,30,N,MILD,RECOVERED,DOSE REDUCED,RELATED,N,,,Gastrointestinal disorders,040
VIRALBLOCK01,AE,VIRALBLOCK01-040,1,Nausea,2023-01-11,2023-01-30,11,30,N,MILD,RECOVERED,DOSE REDUCED,RELATED,UNKNOWN,,,Gastrointestinal disorders,040
VIRALBLOCK01,AE,VIRALBLOCK01-040,1,Nausea,2023-01-15,2023-02-02,15,33,N,MODERATE,RECOVERED,NONE,RELATED,Y,,,Gastrointestinal disorders,040
VIRALBLOCK01,AE,VIRALBLOCK01-040,1,Nausea,2023-01-15,2023-02-02,15,33,N,MODERATE,RECOVERED,NONE,RELATED,N,,,Gastrointestinal disorders,040
VIRALBLOCK01,AE,VIRALBLOCK01-040,1,Nausea,2023-01-15,2023-02-02,15,33,N,MODERATE,RECOVERED,NONE,RELATED,UNKNOWN,,,Gastrointestinal disorders,040
VIRALBLOCK01,AE,VIRALBLOCK01-040,1,Nausea,2023-01-18,2023-02-01,18,32,Y,SEVERE,RECOVERED,DOSE REDUCED,RELATED,Y,Y,,Gastrointestinal disorders,040
VIRALBLOCK01,AE,VIRALBLOCK01-040,1,Nausea,2023-01-18,2023-02-01,18,32,Y,SEVERE,RECOVERED,DOSE REDUCED,RELATED,N,Y,,Gastrointestinal disorders,040
VIRALBLOCK01,AE,VIRALBLOCK01-040,1,Nausea,2023-01-18,2023-02-01,18,32,Y,SEVERE,RECOVERED,DOSE REDUCED,RELATED,UNKNOWN,Y,,Gastrointestinal disorders,040
VIRALBLOCK01,AE,VIRALBLOCK01-041,1,Cough,2023-01-05,2023-01-16,5,16,N,MILD,RECOVERED,NONE,NOT RELATED,UNKNOWN,Y,,Respiratory disorders,041
VIRALBLOCK01,AE,VIRALBLOCK01-041,1,Cough,2023-01-05,2023-01-16,5,16,N,MILD,RECOVERED,NONE,NOT RELATED,Y,Y,,Respiratory disorders,041
VIRALBLOCK01,AE,VIRALBLOCK01-041,1,Cough,2023-01-05,2023-01-16,5,16,N,MILD,RECOVERED,NONE,NOT RELATED,N,Y,,Respiratory disorders,041
VIRALBLOCK01,AE,VIRALBLOCK01-043,1,Nausea,2023-01-08,2023-01-24,8,24,Y,SEVERE,RECOVERED,DRUG WITHDRAWN,POSSIBLY RELATED,Y,,,Gastrointestinal disorders,043
VIRALBLOCK01,AE,VIRALBLOCK01-043,1,Nausea,2023-01-08,2023-01-24,8,24,Y,SEVERE,RECOVERED,DRUG WITHDRAWN,POSSIBLY RELATED,UNKNOWN,,,Gastrointestinal disorders,043
VIRALBLOCK01,AE,VIRALBLOCK01-043,1,Nausea,2023-01-08,2023-01-24,8,24,Y,SEVERE,RECOVERED,DRUG WITHDRAWN,POSSIBLY RELATED,N,,,Gastrointestinal disorders,043
VIRALBLOCK01,AE,VIRALBLOCK01-044,1,Cough,2023-01-01,2023-01-22,1,22,N,MILD,RECOVERED,NONE,RELATED,N,Y,,Respiratory disorders,044
VIRALBLOCK01,AE,VIRALBLOCK01-044,1,Cough,2023-01-01,2023-01-22,1,22,N,MILD,RECOVERED,NONE,RELATED,Y,Y,,Respiratory disorders,044
VIRALBLOCK01,AE,VIRALBLOCK01-044,1,Cough,2023-01-01,2023-01-22,1,22,N,MILD,RECOVERED,NONE,RELATED,UNKNOWN,Y,,Respiratory disorders,044
VIRALBLOCK01,AE,VIRALBLOCK01-046,1,Nausea,2023-01-12,2023-01-28,12,28,N,MILD,RECOVERED,DOSE REDUCED,POSSIBLY RELATED,Y,,,Gastrointestinal disorders,046
VIRALBLOCK01,AE,VIRALBLOCK01-046,1,Nausea,2023-01-12,2023-01-28,12,28,N,MILD,RECOVERED,DOSE REDUCED,POSSIBLY RELATED,N,,,Gastrointestinal disorders,046
VIRALBLOCK01,AE,VIRALBLOCK01-046,1,Nausea,2023-01-12,2023-01-28,12,28,N,MILD,RECOVERED,DOSE REDUCED,POSSIBLY RELATED,UNKNOWN,,,Gastrointestinal disorders,046
VIRALBLOCK01,AE,VIRALBLOCK01-046,1,Nausea,2023-01-16,2023-02-05,16,36,N,MODERATE,RECOVERING,DRUG WITHDRAWN,POSSIBLY RELATED,N,Y,,Gastrointestinal disorders,046
VIRALBLOCK01,AE,VIRALBLOCK01-046,1,Nausea,2023-01-16,2023-02-05,16,36,N,MODERATE,RECOVERING,DRUG WITHDRAWN,POSSIBLY RELATED,UNKNOWN,Y,,Gastrointestinal disorders,046
VIRALBLOCK01,AE,VIRALBLOCK01-046,1,Nausea,2023-01-16,2023-02-05,16,36,N,MODERATE,RECOVERING,DRUG WITHDRAWN,POSSIBLY RELATED,Y,Y,,Gastrointestinal disorders,046
VIRALBLOCK01,AE,VIRALBLOCK01-047,1,Rash,2023-01-24,2023-01-29,24,29,N,MODERATE,RECOVERED,NONE,RELATED,UNKNOWN,,,Skin and subcutaneous tissue disorders,047
VIRALBLOCK01,AE,VIRALBLOCK01-047,1,Rash,2023-01-24,2023-01-29,24,29,N,MODERATE,RECOVERED,NONE,RELATED,N,,,Skin and subcutaneous tissue disorders,047
VIRALBLOCK01,AE,VIRALBLOCK01-047,1,Rash,2023-01-24,2023-01-29,24,29,N,MODERATE,RECOVERED,NONE,RELATED,Y,,,Skin and subcutaneous tissue disorders,047
VIRALBLOCK01,AE,VIRALBLOCK01-049,1,Cough,2023-01-19,2023-01-28,19,28,N,MILD,RECOVERED,DOSE REDUCED,RELATED,N,Y,,Respiratory disorders,049
VIRALBLOCK01,AE,VIRALBLOCK01-049,1,Cough,2023-01-19,2023-01-28,19,28,N,MILD,RECOVERED,DOSE REDUCED,RELATED,Y,Y,,Respiratory disorders,049
VIRALBLOCK01,AE,VIRALBLOCK01-049,1,Cough,2023-01-19,2023-01-28,19,28,N,MILD,RECOVERED,DOSE REDUCED,RELATED,UNKNOWN,Y,,Respiratory disorders,049
VIRALBLOCK01,AE,VIRALBLOCK01-050,1,Headache,2023-01-20,2023-01-30,20,30,N,MODERATE,RECOVERING,DRUG WITHDRAWN,RELATED,Y,Y,,Nervous system disorders,050
VIRALBLOCK01,AE,VIRALBLOCK01-050,1,Headache,2023-01-20,2023-01-30,20,30,N,MODERATE,RECOVERING,DRUG WITHDRAWN,RELATED,N,Y,,Nervous system disorders,050
VIRALBLOCK01,AE,VIRALBLOCK01-050,1,Headache,2023-01-20,2023-01-30,20,30,N,MODERATE,RECOVERING,DRUG WITHDRAWN,RELATED,UNKNOWN,Y,,Nervous system disorders,050
VIRALBLOCK01,AE,VIRALBLOCK01-051,1,Nausea,2023-01-13,2023-01-24,13,24,N,SEVERE,RECOVERED,DOSE REDUCED,POSSIBLY RELATED,N,Y,,Gastrointestinal disorders,051
VIRALBLOCK01,AE,VIRALBLOCK01-051,1,Nausea,2023-01-13,2023-01-24,13,24,N,SEVERE,RECOVERED,DOSE REDUCED,POSSIBLY RELATED,Y,Y,,Gastrointestinal disorders,051
VIRALBLOCK01,AE,VIRALBLOCK01-051,1,Nausea,2023-01-13,2023-01-24,13,24,N,SEVERE,RECOVERED,DOSE REDUCED,POSSIBLY RELATED,UNKNOWN,Y,,Gastrointestinal disorders,051
VIRALBLOCK01,AE,VIRALBLOCK01-052,1,Fatigue,2023-01-05,2023-01-20,5,20,N,SEVERE,RECOVERED,DRUG WITHDRAWN,NOT RELATED,N,Y,,General disorders and administration site conditions,052
VIRALBLOCK01,AE,VIRALBLOCK01-052,1,Fatigue,2023-01-05,2023-01-20,5,20,N,SEVERE,RECOVERED,DRUG WITHDRAWN,NOT RELATED,UNKNOWN,Y,,General disorders and administration site conditions,052
VIRALBLOCK01,AE,VIRALBLOCK01-052,1,Fatigue,2023-01-05,2023-01-20,5,20,N,SEVERE,RECOVERED,DRUG WITHDRAWN,NOT RELATED,Y,Y,,General disorders and administration site conditions,052
VIRALBLOCK01,AE,VIRALBLOCK01-052,1,Fatigue,2023-01-07,2023-01-19,7,19,N,MILD,RECOVERING,DOSE REDUCED,RELATED,UNKNOWN,Y,,General disorders and administration site conditions,052
VIRALBLOCK01,AE,VIRALBLOCK01-052,1,Fatigue,2023-01-07,2023-01-19,7,19,N,MILD,RECOVERING,DOSE REDUCED,RELATED,N,Y,,General disorders and administration site conditions,052
VIRALBLOCK01,AE,VIRALBLOCK01-052,1,Fatigue,2023-01-07,2023-01-19,7,19,N,MILD,RECOVERING,DOSE REDUCED,RELATED,Y,Y,,General disorders and administration site conditions,052
VIRALBLOCK01,AE,VIRALBLOCK01-052,1,Nausea,2023-01-13,2023-01-25,13,25,Y,MODERATE,RECOVERED,DRUG WITHDRAWN,RELATED,UNKNOWN,,,Gastrointestinal disorders,052
VIRALBLOCK01,AE,VIRALBLOCK01-052,1,Nausea,2023-01-13,2023-01-25,13,25,Y,MODERATE,RECOVERED,DRUG WITHDRAWN,RELATED,N,,,Gastrointestinal disorders,052
VIRALBLOCK01,AE,VIRALBLOCK01-052,1,Nausea,2023-01-13,2023-01-25,13,25,Y,MODERATE,RECOVERED,DRUG WITHDRAWN,RELATED,Y,,,Gastrointestinal disorders,052
VIRALBLOCK01,AE,VIRALBLOCK01-053,1,Headache,2023-01-08,2023-01-25,8,25,N,MILD,RECOVERED,DRUG WITHDRAWN,NOT RELATED,UNKNOWN,Y,,Nervous system disorders,053
VIRALBLOCK01,AE,VIRALBLOCK01-053,1,Headache,2023-01-08,2023-01-25,8,25,N,MILD,RECOVERED,DRUG WITHDRAWN,NOT RELATED,Y,Y,,Nervous system disorders,053
VIRALBLOCK01,AE,VIRALBLOCK01-053,1,Headache,2023-01-08,2023-01-25,8,25,N,MILD,RECOVERED,DRUG WITHDRAWN,NOT RELATED,N,Y,,Nervous system disorders,053
VIRALBLOCK01,AE,VIRALBLOCK01-054,1,Fever,2023-01-04,2023-02-01,4,32,N,MODERATE,RECOVERING,DRUG WITHDRAWN,RELATED,N,Y,,General disorders and administration site conditions,054
VIRALBLOCK01,AE,VIRALBLOCK01-054,1,Fever,2023-01-04,2023-02-01,4,32,N,MODERATE,RECOVERING,DRUG WITHDRAWN,RELATED,UNKNOWN,Y,,General disorders and administration site conditions,054
VIRALBLOCK01,AE,VIRALBLOCK01-054,1,Fever,2023-01-04,2023-02-01,4,32,N,MODERATE,RECOVERING,DRUG WITHDRAWN,RELATED,Y,Y,,General disorders and administration site conditions,054
VIRALBLOCK01,AE,VIRALBLOCK01-054,1,Fever,2023-01-05,2023-01-26,5,26,N,MILD,RECOVERED,NONE,RELATED,Y,Y,,General disorders and administration site conditions,054
VIRALBLOCK01,AE,VIRALBLOCK01-054,1,Fever,2023-01-05,2023-01-26,5,26,N,MILD,RECOVERED,NONE,RELATED,N,Y,,General disorders and administration site conditions,054
VIRALBLOCK01,AE,VIRALBLOCK01-054,1,Fever,2023-01-05,2023-01-26,5,26,N,MILD,RECOVERED,NONE,RELATED,UNKNOWN,Y,,General disorders and administration site conditions,054
VIRALBLOCK01,AE,VIRALBLOCK01-057,1,Headache,2023-01-11,2023-01-22,11,22,N,MILD,RECOVERING,DOSE REDUCED,POSSIBLY RELATED,Y,Y,,Nervous system disorders,057
VIRALBLOCK01,AE,VIRALBLOCK01-057,1,Headache,2023-01-11,2023-01-22,11,22,N,MILD,RECOVERING,DOSE REDUCED,POSSIBLY RELATED,N,Y,,Nervous system disorders,057
VIRALBLOCK01,AE,VIRALBLOCK01-057,1,Headache,2023-01-11,2023-01-22,11,22,N,MILD,RECOVERING,DOSE REDUCED,POSSIBLY RELATED,UNKNOWN,Y,,Nervous system disorders,057
VIRALBLOCK01,AE,VIRALBLOCK01-058,1,Cough,2023-01-09,2023-01-24,9,24,N,MILD,NOT RECOVERED,DRUG WITHDRAWN,NOT RELATED,N,Y,,Respiratory disorders,058
VIRALBLOCK01,AE,VIRALBLOCK01-058,1,Cough,2023-01-09,2023-01-24,9,24,N,MILD,NOT RECOVERED,DRUG WITHDRAWN,NOT RELATED,Y,Y,,Respiratory disorders,058
VIRALBLOCK01,AE,VIRALBLOCK01-058,1,Cough,2023-01-09,2023-01-24,9,24,N,MILD,NOT RECOVERED,DRUG WITHDRAWN,NOT RELATED,UNKNOWN,Y,,Respiratory disorders,058
VIRALBLOCK01,AE,VIRALBLOCK01-058,1,Nausea,2023-01-14,2023-01-31,14,31,N,MODERATE,NOT RECOVERED,DRUG WITHDRAWN,NOT RELATED,Y,Y,,Gastrointestinal disorders,058
VIRALBLOCK01,AE,VIRALBLOCK01-058,1,Nausea,2023-01-14,2023-01-31,14,31,N,MODERATE,NOT RECOVERED,DRUG WITHDRAWN,NOT RELATED,N,Y,,Gastrointestinal disorders,058
VIRALBLOCK01,AE,VIRALBLOCK01-058,1,Nausea,2023-01-14,2023-01-31,14,31,N,MODERATE,NOT RECOVERED,DRUG WITHDRAWN,NOT RELATED,UNKNOWN,Y,,Gastrointestinal disorders,058
VIRALBLOCK01,AE,VIRALBLOCK01-059,1,Fatigue,2023-01-11,2023-01-28,11,28,N,MILD,RECOVERED,NONE,RELATED,N,Y,,General disorders and administration site conditions,059
VIRALBLOCK01,AE,VIRALBLOCK01-059,1,Fatigue,2023-01-11,2023-01-28,11,28,N,MILD,RECOVERED,NONE,RELATED,UNKNOWN,Y,,General disorders and administration site conditions,059
VIRALBLOCK01,AE,VIRALBLOCK01-059,1,Fatigue,2023-01-11,2023-01-28,11,28,N,MILD,RECOVERED,NONE,RELATED,Y,Y,,General disorders and administration site conditions,059
VIRALBLOCK01,AE,VIRALBLOCK01-059,1,Rash,2023-01-21,2023-02-07,21,38,N,MILD,RECOVERED,DRUG WITHDRAWN,POSSIBLY RELATED,N,Y,,Skin and subcutaneous tissue disorders,059
VIRALBLOCK01,AE,VIRALBLOCK01-059,1,Rash,2023-01-21,2023-02-07,21,38,N,MILD,RECOVERED,DRUG WITHDRAWN,POSSIBLY RELATED,Y,Y,,Skin and subcutaneous tissue disorders,059
VIRALBLOCK01,AE,VIRALBLOCK01-059,1,Rash,2023-01-21,2023-02-07,21,38,N,MILD,RECOVERED,DRUG WITHDRAWN,POSSIBLY RELATED,UNKNOWN,Y,,Skin and subcutaneous tissue disorders,059
VIRALBLOCK01,AE,VIRALBLOCK01-060,1,Cough,2023-01-10,2023-01-22,10,22,N,MODERATE,RECOVERED,DOSE REDUCED,RELATED,N,,,Respiratory disorders,060
VIRALBLOCK01,AE,VIRALBLOCK01-060,1,Cough,2023-01-10,2023-01-22,10,22,N,MODERATE,RECOVERED,DOSE REDUCED,RELATED,Y,,,Respiratory disorders,060
VIRALBLOCK01,AE,VIRALBLOCK01-060,1,Cough,2023-01-10,2023-01-22,10,22,N,MODERATE,RECOVERED,DOSE REDUCED,RELATED,UNKNOWN,,,Respiratory disorders,060
VIRALBLOCK01,AE,VIRALBLOCK01-061,1,Cough,2023-01-12,2023-01-31,12,31,N,SEVERE,RECOVERED,DRUG WITHDRAWN,RELATED,N,,,Respiratory disorders,061
VIRALBLOCK01,AE,VIRALBLOCK01-061,1,Cough,2023-01-12,2023-01-31,12,31,N,SEVERE,RECOVERED,DRUG WITHDRAWN,RELATED,UNKNOWN,,,Respiratory disorders,061
VIRALBLOCK01,AE,VIRALBLOCK01-061,1,Cough,2023-01-12,2023-01-31,12,31,N,SEVERE,RECOVERED,DRUG WITHDRAWN,RELATED,Y,,,Respiratory disorders,061
VIRALBLOCK01,AE,VIRALBLOCK01-061,1,Fever,2023-01-13,2023-01-27,13,27,N,MODERATE,RECOVERING,NONE,POSSIBLY RELATED,N,,,General disorders and administration site conditions,061
VIRALBLOCK01,AE,VIRALBLOCK01-061,1,Fever,2023-01-13,2023-01-27,13,27,N,MODERATE,RECOVERING,NONE,POSSIBLY RELATED,Y,,,General disorders and administration site conditions,061
VIRALBLOCK01,AE,VIRALBLOCK01-061,1,Fever,2023-01-13,2023-01-27,13,27,N,MODERATE,RECOVERING,NONE,POSSIBLY RELATED,UNKNOWN,,,General disorders and administration site conditions,061
VIRALBLOCK01,AE,VIRALBLOCK01-061,1,Cough,2023-01-24,2023-02-02,24,33,N,MODERATE,RECOVERED,DOSE REDUCED,RELATED,UNKNOWN,,,Respiratory disorders,061
VIRALBLOCK01,AE,VIRALBLOCK01-061,1,Cough,2023-01-24,2023-02-02,24,33,N,MODERATE,RECOVERED,DOSE REDUCED,RELATED,N,,,Respiratory disorders,061
VIRALBLOCK01,AE,VIRALBLOCK01-061,1,Cough,2023-01-24,2023-02-02,24,33,N,MODERATE,RECOVERED,DOSE REDUCED,RELATED,Y,,,Respiratory disorders,061
VIRALBLOCK01,AE,VIRALBLOCK01-063,1,Cough,2023-01-14,2023-02-02,14,33,N,MILD,RECOVERED,DRUG WITHDRAWN,POSSIBLY RELATED,Y,,,Respiratory disorders,063
VIRALBLOCK01,AE,VIRALBLOCK01-063,1,Cough,2023-01-14,2023-02-02,14,33,N,MILD,RECOVERED,DRUG WITHDRAWN,POSSIBLY RELATED,UNKNOWN,,,Respiratory disorders,063
VIRALBLOCK01,AE,VIRALBLOCK01-063,1,Cough,2023-01-14,2023-02-02,14,33,N,MILD,RECOVERED,DRUG WITHDRAWN,POSSIBLY RELATED,N,,,Respiratory disorders,063
VIRALBLOCK01,AE,VIRALBLOCK01-063,1,Fever,2023-01-23,2023-02-02,23,33,Y,MILD,RECOVERED,DRUG WITHDRAWN,RELATED,UNKNOWN,Y,,General disorders and administration site conditions,063
VIRALBLOCK01,AE,VIRALBLOCK01-063,1,Fever,2023-01-23,2023-02-02,23,33,Y,MILD,RECOVERED,DRUG WITHDRAWN,RELATED,N,Y,,General disorders and administration site conditions,063
VIRALBLOCK01,AE,VIRALBLOCK01-063,1,Fever,2023-01-23,2023-02-02,23,33,Y,MILD,RECOVERED,DRUG WITHDRAWN,RELATED,Y,Y,,General disorders and administration site conditions,063
VIRALBLOCK01,AE,VIRALBLOCK01-064,1,Rash,2023-01-11,2023-02-02,11,33,N,MILD,RECOVERED,NONE,NOT RELATED,Y,Y,,Skin and subcutaneous tissue disorders,064
VIRALBLOCK01,AE,VIRALBLOCK01-064,1,Rash,2023-01-11,2023-02-02,11,33,N,MILD,RECOVERED,NONE,NOT RELATED,N,Y,,Skin and subcutaneous tissue disorders,064
VIRALBLOCK01,AE,VIRALBLOCK01-064,1,Rash,2023-01-11,2023-02-02,11,33,N,MILD,RECOVERED,NONE,NOT RELATED,UNKNOWN,Y,,Skin and subcutaneous tissue disorders,064
VIRALBLOCK01,AE,VIRALBLOCK01-064,1,Fatigue,2023-01-13,2023-02-01,13,32,N,MODERATE,RECOVERING,DOSE REDUCED,POSSIBLY RELATED,UNKNOWN,,,General disorders and administration site conditions,064
VIRALBLOCK01,AE,VIRALBLOCK01-064,1,Fatigue,2023-01-13,2023-02-01,13,32,N,MODERATE,RECOVERING,DOSE REDUCED,POSSIBLY RELATED,Y,,,General disorders and administration site conditions,064
VIRALBLOCK01,AE,VIRALBLOCK01-064,1,Fatigue,2023-01-13,2023-02-01,13,32,N,MODERATE,RECOVERING,DOSE REDUCED,POSSIBLY RELATED,N,,,General disorders and administration site conditions,064
VIRALBLOCK01,AE,VIRALBLOCK01-068,1,Fatigue,2023-01-03,2023-01-21,3,21,Y,SEVERE,RECOVERING,DOSE REDUCED,POSSIBLY RELATED,Y,,,General disorders and administration site conditions,068
VIRALBLOCK01,AE,VIRALBLOCK01-068,1,Fatigue,2023-01-03,2023-01-21,3,21,Y,SEVERE,RECOVERING,DOSE REDUCED,POSSIBLY RELATED,UNKNOWN,,,General disorders and administration site conditions,068
VIRALBLOCK01,AE,VIRALBLOCK01-068,1,Fatigue,2023-01-03,2023-01-21,3,21,Y,SEVERE,RECOVERING,DOSE REDUCED,POSSIBLY RELATED,N,,,General disorders and administration site conditions,068
VIRALBLOCK01,AE,VIRALBLOCK01-068,1,Fatigue,2023-01-10,2023-01-24,10,24,N,MODERATE,NOT RECOVERED,DOSE REDUCED,POSSIBLY RELATED,UNKNOWN,,,General disorders and administration site conditions,068
VIRALBLOCK01,AE,VIRALBLOCK01-068,1,Fatigue,2023-01-10,2023-01-24,10,24,N,MODERATE,NOT RECOVERED,DOSE REDUCED,POSSIBLY RELATED,N,,,General disorders and administration site conditions,068
VIRALBLOCK01,AE,VIRALBLOCK01-068,1,Fatigue,2023-01-10,2023-01-24,10,24,N,MODERATE,NOT RECOVERED,DOSE REDUCED,POSSIBLY RELATED,Y,,,General disorders and administration site conditions,068
VIRALBLOCK01,AE,VIRALBLOCK01-069,1,Nausea,2023-01-17,2023-02-06,17,37,N,MILD,RECOVERING,NONE,RELATED,N,Y,,Gastrointestinal disorders,069
VIRALBLOCK01,AE,VIRALBLOCK01-069,1,Nausea,2023-01-17,2023-02-06,17,37,N,MILD,RECOVERING,NONE,RELATED,UNKNOWN,Y,,Gastrointestinal disorders,069
VIRALBLOCK01,AE,VIRALBLOCK01-069,1,Nausea,2023-01-17,2023-02-06,17,37,N,MILD,RECOVERING,NONE,RELATED,Y,Y,,Gastrointestinal disorders,069
VIRALBLOCK01,AE,VIRALBLOCK01-070,1,Fever,2023-01-06,2023-01-23,6,23,N,MODERATE,RECOVERED,NONE,POSSIBLY RELATED,N,,,General disorders and administration site conditions,070
VIRALBLOCK01,AE,VIRALBLOCK01-070,1,Fever,2023-01-06,2023-01-23,6,23,N,MODERATE,RECOVERED,NONE,POSSIBLY RELATED,Y,,,General disorders and administration site conditions,070
VIRALBLOCK01,AE,VIRALBLOCK01-070,1,Fever,2023-01-06,2023-01-23,6,23,N,MODERATE,RECOVERED,NONE,POSSIBLY RELATED,UNKNOWN,,,General disorders and administration site conditions,070
VIRALBLOCK01,AE,VIRALBLOCK01-071,1,Rash,2023-01-02,2023-01-20,2,20,N,MILD,NOT RECOVERED,DOSE REDUCED,RELATED,UNKNOWN,Y,,Skin and subcutaneous tissue disorders,071
VIRALBLOCK01,AE,VIRALBLOCK01-071,1,Rash,2023-01-02,2023-01-20,2,20,N,MILD,NOT RECOVERED,DOSE REDUCED,RELATED,N,Y,,Skin and subcutaneous tissue disorders,071
VIRALBLOCK01,AE,VIRALBLOCK01-071,1,Rash,2023-01-02,2023-01-20,2,20,N,MILD,NOT RECOVERED,DOSE REDUCED,RELATED,Y,Y,,Skin and subcutaneous tissue disorders,071
VIRALBLOCK01,AE,VIRALBLOCK01-071,1,Headache,2023-01-12,2023-01-18,12,18,N,SEVERE,RECOVERED,DOSE REDUCED,RELATED,Y,,,Nervous system disorders,071
VIRALBLOCK01,AE,VIRALBLOCK01-071,1,Headache,2023-01-12,2023-01-18,12,18,N,SEVERE,RECOVERED,DOSE REDUCED,RELATED,UNKNOWN,,,Nervous system disorders,071
VIRALBLOCK01,AE,VIRALBLOCK01-071,1,Headache,2023-01-12,2023-01-18,12,18,N,SEVERE,RECOVERED,DOSE REDUCED,RELATED,N,,,Nervous system disorders,071
VIRALBLOCK01,AE,VIRALBLOCK01-072,1,Fever,2023-01-06,2023-01-30,6,30,Y,MILD,RECOVERING,DOSE REDUCED,POSSIBLY RELATED,N,,,General disorders and administration site conditions,072
VIRALBLOCK01,AE,VIRALBLOCK01-072,1,Fever,2023-01-06,2023-01-30,6,30,Y,MILD,RECOVERING,DOSE REDUCED,POSSIBLY RELATED,UNKNOWN,,,General disorders and administration site conditions,072
VIRALBLOCK01,AE,VIRALBLOCK01-072,1,Fever,2023-01-06,2023-01-30,6,30,Y,MILD,RECOVERING,DOSE REDUCED,POSSIBLY RELATED,Y,,,General disorders and administration site conditions,072
VIRALBLOCK01,AE,VIRALBLOCK01-072,1,Fatigue,2023-01-10,2023-01-21,10,21,N,SEVERE,RECOVERED,DRUG WITHDRAWN,RELATED,UNKNOWN,,,General disorders and administration site conditions,072
VIRALBLOCK01,AE,VIRALBLOCK01-072,1,Fatigue,2023-01-10,2023-01-21,10,21,N,SEVERE,RECOVERED,DRUG WITHDRAWN,RELATED,Y,,,General disorders and administration site conditions,072
VIRALBLOCK01,AE,VIRALBLOCK01-072,1,Fatigue,2023-01-10,2023-01-21,10,21,N,SEVERE,RECOVERED,DRUG WITHDRAWN,RELATED,N,,,General disorders and administration site conditions,072
VIRALBLOCK01,AE,VIRALBLOCK01-072,1,Fatigue,2023-01-11,2023-01-27,11,27,Y,MILD,RECOVERED,NONE,POSSIBLY RELATED,UNKNOWN,,,General disorders and administration site conditions,072
VIRALBLOCK01,AE,VIRALBLOCK01-072,1,Fatigue,2023-01-11,2023-01-27,11,27,Y,MILD,RECOVERED,NONE,POSSIBLY RELATED,N,,,General disorders and administration site conditions,072
VIRALBLOCK01,AE,VIRALBLOCK01-072,1,Fatigue,2023-01-11,2023-01-27,11,27,Y,MILD,RECOVERED,NONE,POSSIBLY RELATED,Y,,,General disorders and administration site conditions,072
VIRALBLOCK01,AE,VIRALBLOCK01-074,1,Rash,2023-01-10,2023-01-26,10,26,N,MODERATE,RECOVERING,NONE,POSSIBLY RELATED,N,Y,,Skin and subcutaneous tissue disorders,074
VIRALBLOCK01,AE,VIRALBLOCK01-074,1,Rash,2023-01-10,2023-01-26,10,26,N,MODERATE,RECOVERING,NONE,POSSIBLY RELATED,UNKNOWN,Y,,Skin and subcutaneous tissue disorders,074
VIRALBLOCK01,AE,VIRALBLOCK01-074,1,Rash,2023-01-10,2023-01-26,10,26,N,MODERATE,RECOVERING,NONE,POSSIBLY RELATED,Y,Y,,Skin and subcutaneous tissue disorders,074
VIRALBLOCK01,AE,VIRALBLOCK01-074,1,Fever,2023-01-19,2023-02-06,19,37,N,MODERATE,RECOVERED,DRUG WITHDRAWN,RELATED,N,Y,,General disorders and administration site conditions,074
VIRALBLOCK01,AE,VIRALBLOCK01-074,1,Fever,2023-01-19,2023-02-06,19,37,N,MODERATE,RECOVERED,DRUG WITHDRAWN,RELATED,Y,Y,,General disorders and administration site conditions,074
VIRALBLOCK01,AE,VIRALBLOCK01-074,1,Fever,2023-01-19,2023-02-06,19,37,N,MODERATE,RECOVERED,DRUG WITHDRAWN,RELATED,UNKNOWN,Y,,General disorders and administration site conditions,074
VIRALBLOCK01,AE,VIRALBLOCK01-075,1,Rash,2023-01-04,2023-01-29,4,29,N,MILD,RECOVERING,DOSE REDUCED,NOT RELATED,Y,Y,,Skin and subcutaneous tissue disorders,075
VIRALBLOCK01,AE,VIRALBLOCK01-075,1,Rash,2023-01-04,2023-01-29,4,29,N,MILD,RECOVERING,DOSE REDUCED,NOT RELATED,N,Y,,Skin and subcutaneous tissue disorders,075
VIRALBLOCK01,AE,VIRALBLOCK01-075,1,Rash,2023-01-04,2023-01-29,4,29,N,MILD,RECOVERING,DOSE REDUCED,NOT RELATED,UNKNOWN,Y,,Skin and subcutaneous tissue disorders,075
VIRALBLOCK01,AE,VIRALBLOCK01-077,1,Fever,2023-01-12,2023-02-07,12,38,N,MODERATE,RECOVERING,DOSE REDUCED,POSSIBLY RELATED,Y,,,General disorders and administration site conditions,077
VIRALBLOCK01,AE,VIRALBLOCK01-077,1,Fever,2023-01-12,2023-02-07,12,38,N,MODERATE,RECOVERING,DOSE REDUCED,POSSIBLY RELATED,N,,,General disorders and administration site conditions,077
VIRALBLOCK01,AE,VIRALBLOCK01-077,1,Fever,2023-01-12,2023-02-07,12,38,N,MODERATE,RECOVERING,DOSE REDUCED,POSSIBLY RELATED,UNKNOWN,,,General disorders and administration site conditions,077
VIRALBLOCK01,AE,VIRALBLOCK01-080,1,Fatigue,2023-01-08,2023-01-26,8,26,N,MODERATE,RECOVERED,DOSE REDUCED,RELATED,UNKNOWN,,,General disorders and administration site conditions,080
VIRALBLOCK01,AE,VIRALBLOCK01-080,1,Fatigue,2023-01-08,2023-01-26,8,26,N,MODERATE,RECOVERED,DOSE REDUCED,RELATED,N,,,General disorders and administration site conditions,080
VIRALBLOCK01,AE,VIRALBLOCK01-080,1,Fatigue,2023-01-08,2023-01-26,8,26,N,MODERATE,RECOVERED,DOSE REDUCED,RELATED,Y,,,General disorders and administration site conditions,080
VIRALBLOCK01,AE,VIRALBLOCK01-081,1,Nausea,2023-01-13,2023-01-22,13,22,N,MILD,RECOVERING,DOSE REDUCED,NOT RELATED,N,Y,,Gastrointestinal disorders,081
VIRALBLOCK01,AE,VIRALBLOCK01-081,1,Nausea,2023-01-13,2023-01-22,13,22,N,MILD,RECOVERING,DOSE REDUCED,NOT RELATED,UNKNOWN,Y,,Gastrointestinal disorders,081
VIRALBLOCK01,AE,VIRALBLOCK01-081,1,Nausea,2023-01-13,2023-01-22,13,22,N,MILD,RECOVERING,DOSE REDUCED,NOT RELATED,Y,Y,,Gastrointestinal disorders,081
VIRALBLOCK01,AE,VIRALBLOCK01-082,1,Rash,2023-01-11,2023-01-24,11,24,N,MILD,NOT RECOVERED,DRUG WITHDRAWN,RELATED,UNKNOWN,Y,,Skin and subcutaneous tissue disorders,082
VIRALBLOCK01,AE,VIRALBLOCK01-082,1,Rash,2023-01-11,2023-01-24,11,24,N,MILD,NOT RECOVERED,DRUG WITHDRAWN,RELATED,N,Y,,Skin and subcutaneous tissue disorders,082
VIRALBLOCK01,AE,VIRALBLOCK01-082,1,Rash,2023-01-11,2023-01-24,11,24,N,MILD,NOT RECOVERED,DRUG WITHDRAWN,RELATED,Y,Y,,Skin and subcutaneous tissue disorders,082
VIRALBLOCK01,AE,VIRALBLOCK01-083,1,Headache,2023-01-01,2023-01-22,1,22,Y,MILD,NOT RECOVERED,NONE,RELATED,UNKNOWN,,,Nervous system disorders,083
VIRALBLOCK01,AE,VIRALBLOCK01-083,1,Headache,2023-01-01,2023-01-22,1,22,Y,MILD,NOT RECOVERED,NONE,RELATED,Y,,,Nervous system disorders,083
VIRALBLOCK01,AE,VIRALBLOCK01-083,1,Headache,2023-01-01,2023-01-22,1,22,Y,MILD,NOT RECOVERED,NONE,RELATED,N,,,Nervous system disorders,083
VIRALBLOCK01,AE,VIRALBLOCK01-083,1,Fatigue,2023-01-09,2023-01-22,9,22,N,MODERATE,RECOVERED,DRUG WITHDRAWN,NOT RELATED,UNKNOWN,,,General disorders and administration site conditions,083
VIRALBLOCK01,AE,VIRALBLOCK01-083,1,Fatigue,2023-01-09,2023-01-22,9,22,N,MODERATE,RECOVERED,DRUG WITHDRAWN,NOT RELATED,Y,,,General disorders and administration site conditions,083
VIRALBLOCK01,AE,VIRALBLOCK01-083,1,Fatigue,2023-01-09,2023-01-22,9,22,N,MODERATE,RECOVERED,DRUG WITHDRAWN,NOT RELATED,N,,,General disorders and administration site conditions,083
VIRALBLOCK01,AE,VIRALBLOCK01-084,1,Fatigue,2023-01-11,2023-01-27,11,27,N,MILD,RECOVERING,DRUG WITHDRAWN,POSSIBLY RELATED,Y,,,General disorders and administration site conditions,084
VIRALBLOCK01,AE,VIRALBLOCK01-084,1,Fatigue,2023-01-11,2023-01-27,11,27,N,MILD,RECOVERING,DRUG WITHDRAWN,POSSIBLY RELATED,UNKNOWN,,,General disorders and administration site conditions,084
VIRALBLOCK01,AE,VIRALBLOCK01-084,1,Fatigue,2023-01-11,2023-01-27,11,27,N,MILD,RECOVERING,DRUG WITHDRAWN,POSSIBLY RELATED,N,,,General disorders and administration site conditions,084
VIRALBLOCK01,AE,VIRALBLOCK01-084,1,Rash,2023-01-18,2023-01-25,18,25,Y,MODERATE,RECOVERED,DRUG WITHDRAWN,NOT RELATED,UNKNOWN,Y,,Skin and subcutaneous tissue disorders,084
VIRALBLOCK01,AE,VIRALBLOCK01-084,1,Rash,2023-01-18,2023-01-25,18,25,Y,MODERATE,RECOVERED,DRUG WITHDRAWN,NOT RELATED,Y,Y,,Skin and subcutaneous tissue disorders,084
VIRALBLOCK01,AE,VIRALBLOCK01-084,1,Rash,2023-01-18,2023-01-25,18,25,Y,MODERATE,RECOVERED,DRUG WITHDRAWN,NOT RELATED,N,Y,,Skin and subcutaneous tissue disorders,084
VIRALBLOCK01,AE,VIRALBLOCK01-086,1,Headache,2023-01-17,2023-01-28,17,28,N,MILD,RECOVERED,DOSE REDUCED,POSSIBLY RELATED,N,,,Nervous system disorders,086
VIRALBLOCK01,AE,VIRALBLOCK01-086,1,Headache,2023-01-17,2023-01-28,17,28,N,MILD,RECOVERED,DOSE REDUCED,POSSIBLY RELATED,Y,,,Nervous system disorders,086
VIRALBLOCK01,AE,VIRALBLOCK01-086,1,Headache,2023-01-17,2023-01-28,17,28,N,MILD,RECOVERED,DOSE REDUCED,POSSIBLY RELATED,UNKNOWN,,,Nervous system disorders,086
VIRALBLOCK01,AE,VIRALBLOCK01-089,1,Fatigue,2023-01-06,2023-01-25,6,25,Y,MILD,RECOVERED,DRUG WITHDRAWN,POSSIBLY RELATED,UNKNOWN,Y,,General disorders and administration site conditions,089
VIRALBLOCK01,AE,VIRALBLOCK01-089,1,Fatigue,2023-01-06,2023-01-25,6,25,Y,MILD,RECOVERED,DRUG WITHDRAWN,POSSIBLY RELATED,Y,Y,,General disorders and administration site conditions,089
VIRALBLOCK01,AE,VIRALBLOCK01-089,1,Fatigue,2023-01-06,2023-01-25,6,25,Y,MILD,RECOVERED,DRUG WITHDRAWN,POSSIBLY RELATED,N,Y,,General disorders and administration site conditions,089
VIRALBLOCK01,AE,VIRALBLOCK01-089,1,Cough,2023-01-09,2023-01-21,9,21,N,SEVERE,RECOVERED,DOSE REDUCED,RELATED,N,Y,,Respiratory disorders,089
VIRALBLOCK01,AE,VIRALBLOCK01-089,1,Cough,2023-01-09,2023-01-21,9,21,N,SEVERE,RECOVERED,DOSE REDUCED,RELATED,UNKNOWN,Y,,Respiratory disorders,089
VIRALBLOCK01,AE,VIRALBLOCK01-089,1,Cough,2023-01-09,2023-01-21,9,21,N,SEVERE,RECOVERED,DOSE REDUCED,RELATED,Y,Y,,Respiratory disorders,089
VIRALBLOCK01,AE,VIRALBLOCK01-090,1,Fatigue,2023-01-15,2023-01-24,15,24,N,MILD,RECOVERED,NONE,RELATED,UNKNOWN,Y,,General disorders and administration site conditions,090
VIRALBLOCK01,AE,VIRALBLOCK01-090,1,Fatigue,2023-01-15,2023-01-24,15,24,N,MILD,RECOVERED,NONE,RELATED,N,Y,,General disorders and administration site conditions,090
VIRALBLOCK01,AE,VIRALBLOCK01-090,1,Fatigue,2023-01-15,2023-01-24,15,24,N,MILD,RECOVERED,NONE,RELATED,Y,Y,,General disorders and administration site conditions,090
VIRALBLOCK01,AE,VIRALBLOCK01-090,1,Cough,2023-01-17,2023-01-31,17,31,N,SEVERE,RECOVERING,NONE,POSSIBLY RELATED,N,Y,,Respiratory disorders,090
VIRALBLOCK01,AE,VIRALBLOCK01-090,1,Cough,2023-01-17,2023-01-31,17,31,N,SEVERE,RECOVERING,NONE,POSSIBLY RELATED,UNKNOWN,Y,,Respiratory disorders,090
VIRALBLOCK01,AE,VIRALBLOCK01-090,1,Cough,2023-01-17,2023-01-31,17,31,N,SEVERE,RECOVERING,NONE,POSSIBLY RELATED,Y,Y,,Respiratory disorders,090
VIRALBLOCK01,AE,VIRALBLOCK01-092,1,Headache,2023-01-18,2023-01-28,18,28,N,MODERATE,RECOVERED,NONE,POSSIBLY RELATED,UNKNOWN,Y,,Nervous system disorders,092
VIRALBLOCK01,AE,VIRALBLOCK01-092,1,Headache,2023-01-18,2023-01-28,18,28,N,MODERATE,RECOVERED,NONE,POSSIBLY RELATED,N,Y,,Nervous system disorders,092
VIRALBLOCK01,AE,VIRALBLOCK01-092,1,Headache,2023-01-18,2023-01-28,18,28,N,MODERATE,RECOVERED,NONE,POSSIBLY RELATED,Y,Y,,Nervous system disorders,092
VIRALBLOCK01,AE,VIRALBLOCK01-094,1,Rash,2023-01-15,2023-01-31,15,31,N,MODERATE,RECOVERING,NONE,POSSIBLY RELATED,Y,,,Skin and subcutaneous tissue disorders,094
VIRALBLOCK01,AE,VIRALBLOCK01-094,1,Rash,2023-01-15,2023-01-31,15,31,N,MODERATE,RECOVERING,NONE,POSSIBLY RELATED,N,,,Skin and subcutaneous tissue disorders,094
VIRALBLOCK01,AE,VIRALBLOCK01-094,1,Rash,2023-01-15,2023-01-31,15,31,N,MODERATE,RECOVERING,NONE,POSSIBLY RELATED,UNKNOWN,,,Skin and subcutaneous tissue disorders,094
VIRALBLOCK01,AE,VIRALBLOCK01-095,1,Fatigue,2023-01-23,2023-01-30,23,30,N,MILD,RECOVERED,DRUG WITHDRAWN,POSSIBLY RELATED,UNKNOWN,Y,,General disorders and administration site conditions,095
VIRALBLOCK01,AE,VIRALBLOCK01-095,1,Fatigue,2023-01-23,2023-01-30,23,30,N,MILD,RECOVERED,DRUG WITHDRAWN,POSSIBLY RELATED,Y,Y,,General disorders and administration site conditions,095
VIRALBLOCK01,AE,VIRALBLOCK01-095,1,Fatigue,2023-01-23,2023-01-30,23,30,N,MILD,RECOVERED,DRUG WITHDRAWN,POSSIBLY RELATED,N,Y,,General disorders and administration site conditions,095
VIRALBLOCK01,AE,VIRALBLOCK01-097,1,Fever,2023-01-13,2023-01-18,13,18,N,MODERATE,RECOVERING,DRUG WITHDRAWN,POSSIBLY RELATED,Y,Y,,General disorders and administration site conditions,097
VIRALBLOCK01,AE,VIRALBLOCK01-097,1,Fever,2023-01-13,2023-01-18,13,18,N,MODERATE,RECOVERING,DRUG WITHDRAWN,POSSIBLY RELATED,N,Y,,General disorders and administration site conditions,097
VIRALBLOCK01,AE,VIRALBLOCK01-097,1,Fever,2023-01-13,2023-01-18,13,18,N,MODERATE,RECOVERING,DRUG WITHDRAWN,POSSIBLY RELATED,UNKNOWN,Y,,General disorders and administration site conditions,097
VIRALBLOCK01,AE,VIRALBLOCK01-098,1,Headache,2023-01-07,2023-01-17,7,17,N,MILD,RECOVERED,DRUG WITHDRAWN,RELATED,Y,Y,,Nervous system disorders,098
VIRALBLOCK01,AE,VIRALBLOCK01-098,1,Headache,2023-01-07,2023-01-17,7,17,N,MILD,RECOVERED,DRUG WITHDRAWN,RELATED,UNKNOWN,Y,,Nervous system disorders,098
VIRALBLOCK01,AE,VIRALBLOCK01-098,1,Headache,2023-01-07,2023-01-17,7,17,N,MILD,RECOVERED,DRUG WITHDRAWN,RELATED,N,Y,,Nervous system disorders,098
VIRALBLOCK01,AE,VIRALBLOCK01-098,1,Nausea,2023-01-08,2023-01-18,8,18,N,MODERATE,RECOVERED,DOSE REDUCED,RELATED,N,Y,,Gastrointestinal disorders,098
VIRALBLOCK01,AE,VIRALBLOCK01-098,1,Nausea,2023-01-08,2023-01-18,8,18,N,MODERATE,RECOVERED,DOSE REDUCED,RELATED,UNKNOWN,Y,,Gastrointestinal disorders,098
VIRALBLOCK01,AE,VIRALBLOCK01-098,1,Nausea,2023-01-08,2023-01-18,8,18,N,MODERATE,RECOVERED,DOSE REDUCED,RELATED,Y,Y,,Gastrointestinal disorders,098
VIRALBLOCK01,AE,VIRALBLOCK01-100,1,Nausea,2023-01-06,2023-01-24,6,24,N,MODERATE,RECOVERING,NONE,RELATED,N,Y,,Gastrointestinal disorders,100
VIRALBLOCK01,AE,VIRALBLOCK01-100,1,Nausea,2023-01-06,2023-01-24,6,24,N,MODERATE,RECOVERING,NONE,RELATED,UNKNOWN,Y,,Gastrointestinal disorders,100
VIRALBLOCK01,AE,VIRALBLOCK01-100,1,Nausea,2023-01-06,2023-01-24,6,24,N,MODERATE,RECOVERING,NONE,RELATED,Y,Y,,Gastrointestinal disorders,100
VIRALBLOCK01,AE,VIRALBLOCK01-100,1,Fatigue,2023-01-17,2023-01-20,17,20,N,MILD,RECOVERED,DOSE REDUCED,POSSIBLY RELATED,UNKNOWN,Y,,General disorders and administration site conditions,100
VIRALBLOCK01,AE,VIRALBLOCK01-100,1,Fatigue,2023-01-17,2023-01-20,17,20,N,MILD,RECOVERED,DOSE REDUCED,POSSIBLY RELATED,Y,Y,,General disorders and administration site conditions,100
VIRALBLOCK01,AE,VIRALBLOCK01-100,1,Fatigue,2023-01-17,2023-01-20,17,20,N,MILD,RECOVERED,DOSE REDUCED,POSSIBLY RELATED,N,Y,,General disorders and administration site conditions,100
VIRALBLOCK01,AE,VIRALBLOCK01-104,1,Cough,2023-01-17,2023-01-22,17,22,N,SEVERE,NOT RECOVERED,DRUG WITHDRAWN,NOT RELATED,N,Y,,Respiratory disorders,104
VIRALBLOCK01,AE,VIRALBLOCK01-104,1,Cough,2023-01-17,2023-01-22,17,22,N,SEVERE,NOT RECOVERED,DRUG WITHDRAWN,NOT RELATED,UNKNOWN,Y,,Respiratory disorders,104
VIRALBLOCK01,AE,VIRALBLOCK01-104,1,Cough,2023-01-17,2023-01-22,17,22,N,SEVERE,NOT RECOVERED,DRUG WITHDRAWN,NOT RELATED,Y,Y,,Respiratory disorders,104
VIRALBLOCK01,AE,VIRALBLOCK01-106,1,Headache,2023-01-06,2023-01-24,6,24,Y,MILD,RECOVERED,NONE,POSSIBLY RELATED,Y,,,Nervous system disorders,106
VIRALBLOCK01,AE,VIRALBLOCK01-106,1,Headache,2023-01-06,2023-01-24,6,24,Y,MILD,RECOVERED,NONE,POSSIBLY RELATED,UNKNOWN,,,Nervous system disorders,106
VIRALBLOCK01,AE,VIRALBLOCK01-106,1,Headache,2023-01-06,2023-01-24,6,24,Y,MILD,RECOVERED,NONE,POSSIBLY RELATED,N,,,Nervous system disorders,106
VIRALBLOCK01,AE,VIRALBLOCK01-109,1,Headache,2023-01-11,2023-01-29,11,29,N,MODERATE,RECOVERING,DRUG WITHDRAWN,RELATED,N,Y,,Nervous system disorders,109
VIRALBLOCK01,AE,VIRALBLOCK01-109,1,Headache,2023-01-11,2023-01-29,11,29,N,MODERATE,RECOVERING,DRUG WITHDRAWN,RELATED,UNKNOWN,Y,,Nervous system disorders,109
VIRALBLOCK01,AE,VIRALBLOCK01-109,1,Headache,2023-01-11,2023-01-29,11,29,N,MODERATE,RECOVERING,DRUG WITHDRAWN,RELATED,Y,Y,,Nervous system disorders,109
VIRALBLOCK01,AE,VIRALBLOCK01-110,1,Fever,2023-01-11,2023-01-29,11,29,N,MILD,RECOVERING,NONE,POSSIBLY RELATED,N,Y,,General disorders and administration site conditions,110
VIRALBLOCK01,AE,VIRALBLOCK01-110,1,Fever,2023-01-11,2023-01-29,11,29,N,MILD,RECOVERING,NONE,POSSIBLY RELATED,UNKNOWN,Y,,General disorders and administration site conditions,110
VIRALBLOCK01,AE,VIRALBLOCK01-110,1,Fever,2023-01-11,2023-01-29,11,29,N,MILD,RECOVERING,NONE,POSSIBLY RELATED,Y,Y,,General disorders and administration site conditions,110
VIRALBLOCK01,AE,VIRALBLOCK01-110,1,Rash,2023-01-15,2023-01-31,15,31,N,MODERATE,RECOVERING,NONE,NOT RELATED,UNKNOWN,Y,,Skin and subcutaneous tissue disorders,110
VIRALBLOCK01,AE,VIRALBLOCK01-110,1,Rash,2023-01-15,2023-01-31,15,31,N,MODERATE,RECOVERING,NONE,NOT RELATED,Y,Y,,Skin and subcutaneous tissue disorders,110
VIRALBLOCK01,AE,VIRALBLOCK01-110,1,Rash,2023-01-15,2023-01-31,15,31,N,MODERATE,RECOVERING,NONE,NOT RELATED,N,Y,,Skin and subcutaneous tissue disorders,110
VIRALBLOCK01,AE,VIRALBLOCK01-112,1,Fever,2023-01-20,2023-01-29,20,29,N,MILD,NOT RECOVERED,NONE,NOT RELATED,Y,Y,,General disorders and administration site conditions,112
VIRALBLOCK01,AE,VIRALBLOCK01-112,1,Fever,2023-01-20,2023-01-29,20,29,N,MILD,NOT RECOVERED,NONE,NOT RELATED,UNKNOWN,Y,,General disorders and administration site conditions,112
VIRALBLOCK01,AE,VIRALBLOCK01-112,1,Fever,2023-01-20,2023-01-29,20,29,N,MILD,NOT RECOVERED,NONE,NOT RELATED,N,Y,,General disorders and administration site conditions,112
VIRALBLOCK01,AE,VIRALBLOCK01-112,1,Headache,2023-01-24,2023-01-30,24,30,N,MODERATE,RECOVERED,DRUG WITHDRAWN,NOT RELATED,UNKNOWN,Y,,Nervous system disorders,112
VIRALBLOCK01,AE,VIRALBLOCK01-112,1,Headache,2023-01-24,2023-01-30,24,30,N,MODERATE,RECOVERED,DRUG WITHDRAWN,NOT RELATED,N,Y,,Nervous system disorders,112
VIRALBLOCK01,AE,VIRALBLOCK01-112,1,Headache,2023-01-24,2023-01-30,24,30,N,MODERATE,RECOVERED,DRUG WITHDRAWN,NOT RELATED,Y,Y,,Nervous system disorders,112
VIRALBLOCK01,AE,VIRALBLOCK01-113,1,Rash,2023-01-09,2023-02-04,9,35,N,SEVERE,RECOVERED,DRUG WITHDRAWN,NOT RELATED,N,,,Skin and subcutaneous tissue disorders,113
VIRALBLOCK01,AE,VIRALBLOCK01-113,1,Rash,2023-01-09,2023-02-04,9,35,N,SEVERE,RECOVERED,DRUG WITHDRAWN,NOT RELATED,Y,,,Skin and subcutaneous tissue disorders,113
VIRALBLOCK01,AE,VIRALBLOCK01-113,1,Rash,2023-01-09,2023-02-04,9,35,N,SEVERE,RECOVERED,DRUG WITHDRAWN,NOT RELATED,UNKNOWN,,,Skin and subcutaneous tissue disorders,113
VIRALBLOCK01,AE,VIRALBLOCK01-114,1,Fatigue,2023-01-10,2023-02-04,10,35,N,SEVERE,RECOVERED,DRUG WITHDRAWN,RELATED,UNKNOWN,Y,,General disorders and administration site conditions,114
VIRALBLOCK01,AE,VIRALBLOCK01-114,1,Fatigue,2023-01-10,2023-02-04,10,35,N,SEVERE,RECOVERED,DRUG WITHDRAWN,RELATED,Y,Y,,General disorders and administration site conditions,114
VIRALBLOCK01,AE,VIRALBLOCK01-114,1,Fatigue,2023-01-10,2023-02-04,10,35,N,SEVERE,RECOVERED,DRUG WITHDRAWN,RELATED,N,Y,,General disorders and administration site conditions,114
VIRALBLOCK01,AE,VIRALBLOCK01-115,1,Fever,2023-01-17,2023-01-26,17,26,N,MILD,RECOVERED,DOSE REDUCED,NOT RELATED,Y,,,General disorders and administration site conditions,115
VIRALBLOCK01,AE,VIRALBLOCK01-115,1,Fever,2023-01-17,2023-01-26,17,26,N,MILD,RECOVERED,DOSE REDUCED,NOT RELATED,N,,,General disorders and administration site conditions,115
VIRALBLOCK01,AE,VIRALBLOCK01-115,1,Fever,2023-01-17,2023-01-26,17,26,N,MILD,RECOVERED,DOSE REDUCED,NOT RELATED,UNKNOWN,,,General disorders and administration site conditions,115
VIRALBLOCK01,AE,VIRALBLOCK01-116,1,Nausea,2023-01-12,2023-01-26,12,26,N,MILD,RECOVERED,DOSE REDUCED,POSSIBLY RELATED,Y,,,Gastrointestinal disorders,116
VIRALBLOCK01,AE,VIRALBLOCK01-116,1,Nausea,2023-01-12,2023-01-26,12,26,N,MILD,RECOVERED,DOSE REDUCED,POSSIBLY RELATED,UNKNOWN,,,Gastrointestinal disorders,116
VIRALBLOCK01,AE,VIRALBLOCK01-116,1,Nausea,2023-01-12,2023-01-26,12,26,N,MILD,RECOVERED,DOSE REDUCED,POSSIBLY RELATED,N,,,Gastrointestinal disorders,116
VIRALBLOCK01,AE,VIRALBLOCK01-116,1,Rash,2023-01-23,2023-01-24,23,24,N,MILD,RECOVERING,DRUG WITHDRAWN,NOT RELATED,N,,,Skin and subcutaneous tissue disorders,116
VIRALBLOCK01,AE,VIRALBLOCK01-116,1,Rash,2023-01-23,2023-01-24,23,24,N,MILD,RECOVERING,DRUG WITHDRAWN,NOT RELATED,Y,,,Skin and subcutaneous tissue disorders,116
VIRALBLOCK01,AE,VIRALBLOCK01-116,1,Rash,2023-01-23,2023-01-24,23,24,N,MILD,RECOVERING,DRUG WITHDRAWN,NOT RELATED,UNKNOWN,,,Skin and subcutaneous tissue disorders,116
VIRALBLOCK01,AE,VIRALBLOCK01-117,1,Rash,2023-01-09,2023-01-30,9,30,N,MODERATE,NOT RECOVERED,DOSE REDUCED,NOT RELATED,N,Y,,Skin and subcutaneous tissue disorders,117
VIRALBLOCK01,AE,VIRALBLOCK01-117,1,Rash,2023-01-09,2023-01-30,9,30,N,MODERATE,NOT RECOVERED,DOSE REDUCED,NOT RELATED,UNKNOWN,Y,,Skin and subcutaneous tissue disorders,117
VIRALBLOCK01,AE,VIRALBLOCK01-117,1,Rash,2023-01-09,2023-01-30,9,30,N,MODERATE,NOT RECOVERED,DOSE REDUCED,NOT RELATED,Y,Y,,Skin and subcutaneous tissue disorders,117
VIRALBLOCK01,AE,VIRALBLOCK01-117,1,Fatigue,2023-01-15,2023-01-24,15,24,N,SEVERE,RECOVERING,NONE,RELATED,Y,Y,,General disorders and administration site conditions,117
VIRALBLOCK01,AE,VIRALBLOCK01-117,1,Fatigue,2023-01-15,2023-01-24,15,24,N,SEVERE,RECOVERING,NONE,RELATED,UNKNOWN,Y,,General disorders and administration site conditions,117
VIRALBLOCK01,AE,VIRALBLOCK01-117,1,Fatigue,2023-01-15,2023-01-24,15,24,N,SEVERE,RECOVERING,NONE,RELATED,N,Y,,General disorders and administration site conditions,117
VIRALBLOCK01,AE,VIRALBLOCK01-117,1,Fatigue,2023-01-18,2023-02-02,18,33,N,MILD,RECOVERING,DRUG WITHDRAWN,NOT RELATED,UNKNOWN,Y,,General disorders and administration site conditions,117
VIRALBLOCK01,AE,VIRALBLOCK01-117,1,Fatigue,2023-01-18,2023-02-02,18,33,N,MILD,RECOVERING,DRUG WITHDRAWN,NOT RELATED,Y,Y,,General disorders and administration site conditions,117
VIRALBLOCK01,AE,VIRALBLOCK01-117,1,Fatigue,2023-01-18,2023-02-02,18,33,N,MILD,RECOVERING,DRUG WITHDRAWN,NOT RELATED,N,Y,,General disorders and administration site conditions,117
VIRALBLOCK01,AE,VIRALBLOCK01-119,1,Fever,2023-01-03,2023-01-22,3,22,N,MODERATE,RECOVERED,DOSE REDUCED,NOT RELATED,N,,,General disorders and administration site conditions,119
VIRALBLOCK01,AE,VIRALBLOCK01-119,1,Fever,2023-01-03,2023-01-22,3,22,N,MODERATE,RECOVERED,DOSE REDUCED,NOT RELATED,Y,,,General disorders and administration site conditions,119
VIRALBLOCK01,AE,VIRALBLOCK01-119,1,Fever,2023-01-03,2023-01-22,3,22,N,MODERATE,RECOVERED,DOSE REDUCED,NOT RELATED,UNKNOWN,,,General disorders and administration site conditions,119
VIRALBLOCK01,AE,VIRALBLOCK01-119,1,Cough,2023-01-04,2023-01-25,4,25,N,MILD,RECOVERED,DRUG WITHDRAWN,NOT RELATED,N,,,Respiratory disorders,119
VIRALBLOCK01,AE,VIRALBLOCK01-119,1,Cough,2023-01-04,2023-01-25,4,25,N,MILD,RECOVERED,DRUG WITHDRAWN,NOT RELATED,Y,,,Respiratory disorders,119
VIRALBLOCK01,AE,VIRALBLOCK01-119,1,Cough,2023-01-04,2023-01-25,4,25,N,MILD,RECOVERED,DRUG WITHDRAWN,NOT RELATED,UNKNOWN,,,Respiratory disorders,119
VIRALBLOCK01,AE,VIRALBLOCK01-119,1,Rash,2023-01-10,2023-01-17,10,17,N,MODERATE,RECOVERING,DOSE REDUCED,NOT RELATED,N,Y,,Skin and subcutaneous tissue disorders,119
VIRALBLOCK01,AE,VIRALBLOCK01-119,1,Rash,2023-01-10,2023-01-17,10,17,N,MODERATE,RECOVERING,DOSE REDUCED,NOT RELATED,Y,Y,,Skin and subcutaneous tissue disorders,119
VIRALBLOCK01,AE,VIRALBLOCK01-119,1,Rash,2023-01-10,2023-01-17,10,17,N,MODERATE,RECOVERING,DOSE REDUCED,NOT RELATED,UNKNOWN,Y,,Skin and subcutaneous tissue disorders,119
VIRALBLOCK01,AE,VIRALBLOCK01-120,1,Headache,2023-01-07,2023-02-01,7,32,N,MODERATE,RECOVERED,DOSE REDUCED,RELATED,UNKNOWN,,,Nervous system disorders,120
VIRALBLOCK01,AE,VIRALBLOCK01-120,1,Headache,2023-01-07,2023-02-01,7,32,N,MODERATE,RECOVERED,DOSE REDUCED,RELATED,N,,,Nervous system disorders,120
VIRALBLOCK01,AE,VIRALBLOCK01-120,1,Headache,2023-01-07,2023-02-01,7,32,N,MODERATE,RECOVERED,DOSE REDUCED,RELATED,Y,,,Nervous system disorders,120
VIRALBLOCK01,AE,VIRALBLOCK01-120,1,Fever,2023-01-08,2023-01-25,8,25,N,MODERATE,RECOVERED,DRUG WITHDRAWN,POSSIBLY RELATED,UNKNOWN,,,General disorders and administration site conditions,120
VIRALBLOCK01,AE,VIRALBLOCK01-120,1,Fever,2023-01-08,2023-01-25,8,25,N,MODERATE,RECOVERED,DRUG WITHDRAWN,POSSIBLY RELATED,Y,,,General disorders and administration site conditions,120
VIRALBLOCK01,AE,VIRALBLOCK01-120,1,Fever,2023-01-08,2023-01-25,8,25,N,MODERATE,RECOVERED,DRUG WITHDRAWN,POSSIBLY RELATED,N,,,General disorders and administration site conditions,120
VIRALBLOCK01,AE,VIRALBLOCK01-121,1,Fatigue,2023-01-18,2023-01-25,18,25,N,MODERATE,RECOVERING,DOSE REDUCED,NOT RELATED,Y,,,General disorders and administration site conditions,121
VIRALBLOCK01,AE,VIRALBLOCK01-121,1,Fatigue,2023-01-18,2023-01-25,18,25,N,MODERATE,RECOVERING,DOSE REDUCED,NOT RELATED,UNKNOWN,,,General disorders and administration site conditions,121
VIRALBLOCK01,AE,VIRALBLOCK01-121,1,Fatigue,2023-01-18,2023-01-25,18,25,N,MODERATE,RECOVERING,DOSE REDUCED,NOT RELATED,N,,,General disorders and administration site conditions,121
VIRALBLOCK01,AE,VIRALBLOCK01-122,1,Fatigue,2023-01-13,2023-01-31,13,31,N,MODERATE,NOT RECOVERED,DOSE REDUCED,RELATED,UNKNOWN,Y,,General disorders and administration site conditions,122
VIRALBLOCK01,AE,VIRALBLOCK01-122,1,Fatigue,2023-01-13,2023-01-31,13,31,N,MODERATE,NOT RECOVERED,DOSE REDUCED,RELATED,N,Y,,General disorders and administration site conditions,122
VIRALBLOCK01,AE,VIRALBLOCK01-122,1,Fatigue,2023-01-13,2023-01-31,13,31,N,MODERATE,NOT RECOVERED,DOSE REDUCED,RELATED,Y,Y,,General disorders and administration site conditions,122
VIRALBLOCK01,AE,VIRALBLOCK01-122,1,Rash,2023-01-14,2023-02-01,14,32,Y,SEVERE,NOT RECOVERED,DRUG WITHDRAWN,RELATED,N,Y,,Skin and subcutaneous tissue disorders,122
VIRALBLOCK01,AE,VIRALBLOCK01-122,1,Rash,2023-01-14,2023-02-01,14,32,Y,SEVERE,NOT RECOVERED,DRUG WITHDRAWN,RELATED,Y,Y,,Skin and subcutaneous tissue disorders,122
VIRALBLOCK01,AE,VIRALBLOCK01-122,1,Rash,2023-01-14,2023-02-01,14,32,Y,SEVERE,NOT RECOVERED,DRUG WITHDRAWN,RELATED,UNKNOWN,Y,,Skin and subcutaneous tissue disorders,122
VIRALBLOCK01,AE,VIRALBLOCK01-122,1,Nausea,2023-01-21,2023-02-01,21,32,Y,MILD,RECOVERING,DRUG WITHDRAWN,POSSIBLY RELATED,UNKNOWN,Y,,Gastrointestinal disorders,122
VIRALBLOCK01,AE,VIRALBLOCK01-122,1,Nausea,2023-01-21,2023-02-01,21,32,Y,MILD,RECOVERING,DRUG WITHDRAWN,POSSIBLY RELATED,N,Y,,Gastrointestinal disorders,122
VIRALBLOCK01,AE,VIRALBLOCK01-122,1,Nausea,2023-01-21,2023-02-01,21,32,Y,MILD,RECOVERING,DRUG WITHDRAWN,POSSIBLY RELATED,Y,Y,,Gastrointestinal disorders,122
VIRALBLOCK01,AE,VIRALBLOCK01-125,1,Nausea,2023-01-10,2023-01-31,10,31,N,MILD,RECOVERED,DOSE REDUCED,NOT RELATED,Y,Y,,Gastrointestinal disorders,125
VIRALBLOCK01,AE,VIRALBLOCK01-125,1,Nausea,2023-01-10,2023-01-31,10,31,N,MILD,RECOVERED,DOSE REDUCED,NOT RELATED,UNKNOWN,Y,,Gastrointestinal disorders,125
VIRALBLOCK01,AE,VIRALBLOCK01-125,1,Nausea,2023-01-10,2023-01-31,10,31,N,MILD,RECOVERED,DOSE REDUCED,NOT RELATED,N,Y,,Gastrointestinal disorders,125
VIRALBLOCK01,AE,VIRALBLOCK01-126,1,Rash,2023-01-13,2023-01-22,13,22,N,MODERATE,RECOVERED,NONE,POSSIBLY RELATED,Y,,,Skin and subcutaneous tissue disorders,126
VIRALBLOCK01,AE,VIRALBLOCK01-126,1,Rash,2023-01-13,2023-01-22,13,22,N,MODERATE,RECOVERED,NONE,POSSIBLY RELATED,N,,,Skin and subcutaneous tissue disorders,126
VIRALBLOCK01,AE,VIRALBLOCK01-126,1,Rash,2023-01-13,2023-01-22,13,22,N,MODERATE,RECOVERED,NONE,POSSIBLY RELATED,UNKNOWN,,,Skin and subcutaneous tissue disorders,126
VIRALBLOCK01,AE,VIRALBLOCK01-129,1,Fever,2023-01-06,2023-01-24,6,24,N,MILD,RECOVERED,DRUG WITHDRAWN,RELATED,Y,Y,,General disorders and administration site conditions,129
VIRALBLOCK01,AE,VIRALBLOCK01-129,1,Fever,2023-01-06,2023-01-24,6,24,N,MILD,RECOVERED,DRUG WITHDRAWN,RELATED,UNKNOWN,Y,,General disorders and administration site conditions,129
VIRALBLOCK01,AE,VIRALBLOCK01-129,1,Fever,2023-01-06,2023-01-24,6,24,N,MILD,RECOVERED,DRUG WITHDRAWN,RELATED,N,Y,,General disorders and administration site conditions,129
VIRALBLOCK01,AE,VIRALBLOCK01-131,1,Fever,2023-01-06,2023-01-27,6,27,N,MODERATE,RECOVERING,DRUG WITHDRAWN,NOT RELATED,Y,Y,,General disorders and administration site conditions,131
VIRALBLOCK01,AE,VIRALBLOCK01-131,1,Fever,2023-01-06,2023-01-27,6,27,N,MODERATE,RECOVERING,DRUG WITHDRAWN,NOT RELATED,N,Y,,General disorders and administration site conditions,131
VIRALBLOCK01,AE,VIRALBLOCK01-131,1,Fever,2023-01-06,2023-01-27,6,27,N,MODERATE,RECOVERING,DRUG WITHDRAWN,NOT RELATED,UNKNOWN,Y,,General disorders and administration site conditions,131
VIRALBLOCK01,AE,VIRALBLOCK01-132,1,Fatigue,2023-01-05,2023-01-23,5,23,N,SEVERE,RECOVERED,NONE,RELATED,Y,Y,,General disorders and administration site conditions,132
VIRALBLOCK01,AE,VIRALBLOCK01-132,1,Fatigue,2023-01-05,2023-01-23,5,23,N,SEVERE,RECOVERED,NONE,RELATED,N,Y,,General disorders and administration site conditions,132
VIRALBLOCK01,AE,VIRALBLOCK01-132,1,Fatigue,2023-01-05,2023-01-23,5,23,N,SEVERE,RECOVERED,NONE,RELATED,UNKNOWN,Y,,General disorders and administration site conditions,132
VIRALBLOCK01,AE,VIRALBLOCK01-132,1,Headache,2023-01-10,2023-02-01,10,32,N,SEVERE,RECOVERED,DOSE REDUCED,RELATED,N,,,Nervous system disorders,132
VIRALBLOCK01,AE,VIRALBLOCK01-132,1,Headache,2023-01-10,2023-02-01,10,32,N,SEVERE,RECOVERED,DOSE REDUCED,RELATED,UNKNOWN,,,Nervous system disorders,132
VIRALBLOCK01,AE,VIRALBLOCK01-132,1,Headache,2023-01-10,2023-02-01,10,32,N,SEVERE,RECOVERED,DOSE REDUCED,RELATED,Y,,,Nervous system disorders,132
VIRALBLOCK01,AE,VIRALBLOCK01-132,1,Fever,2023-01-12,2023-01-28,12,28,N,SEVERE,RECOVERED,DRUG WITHDRAWN,RELATED,N,,,General disorders and administration site conditions,132
VIRALBLOCK01,AE,VIRALBLOCK01-132,1,Fever,2023-01-12,2023-01-28,12,28,N,SEVERE,RECOVERED,DRUG WITHDRAWN,RELATED,Y,,,General disorders and administration site conditions,132
VIRALBLOCK01,AE,VIRALBLOCK01-132,1,Fever,2023-01-12,2023-01-28,12,28,N,SEVERE,RECOVERED,DRUG WITHDRAWN,RELATED,UNKNOWN,,,General disorders and administration site conditions,132
VIRALBLOCK01,AE,VIRALBLOCK01-133,1,Fever,2023-01-14,2023-01-22,14,22,N,MILD,NOT RECOVERED,DOSE REDUCED,RELATED,UNKNOWN,,,General disorders and administration site conditions,133
VIRALBLOCK01,AE,VIRALBLOCK01-133,1,Fever,2023-01-14,2023-01-22,14,22,N,MILD,NOT RECOVERED,DOSE REDUCED,RELATED,Y,,,General disorders and administration site conditions,133
VIRALBLOCK01,AE,VIRALBLOCK01-133,1,Fever,2023-01-14,2023-01-22,14,22,N,MILD,NOT RECOVERED,DOSE REDUCED,RELATED,N,,,General disorders and administration site conditions,133
VIRALBLOCK01,AE,VIRALBLOCK01-135,1,Nausea,2023-01-07,2023-01-31,7,31,N,MILD,RECOVERED,DOSE REDUCED,NOT RELATED,N,,,Gastrointestinal disorders,135
VIRALBLOCK01,AE,VIRALBLOCK01-135,1,Nausea,2023-01-07,2023-01-31,7,31,N,MILD,RECOVERED,DOSE REDUCED,NOT RELATED,UNKNOWN,,,Gastrointestinal disorders,135
VIRALBLOCK01,AE,VIRALBLOCK01-135,1,Nausea,2023-01-07,2023-01-31,7,31,N,MILD,RECOVERED,DOSE REDUCED,NOT RELATED,Y,,,Gastrointestinal disorders,135
VIRALBLOCK01,AE,VIRALBLOCK01-135,1,Rash,2023-01-20,2023-01-30,20,30,N,MODERATE,RECOVERING,NONE,POSSIBLY RELATED,N,,,Skin and subcutaneous tissue disorders,135
VIRALBLOCK01,AE,VIRALBLOCK01-135,1,Rash,2023-01-20,2023-01-30,20,30,N,MODERATE,RECOVERING,NONE,POSSIBLY RELATED,UNKNOWN,,,Skin and subcutaneous tissue disorders,135
VIRALBLOCK01,AE,VIRALBLOCK01-135,1,Rash,2023-01-20,2023-01-30,20,30,N,MODERATE,RECOVERING,NONE,POSSIBLY RELATED,Y,,,Skin and subcutaneous tissue disorders,135
VIRALBLOCK01,AE,VIRALBLOCK01-136,1,Fatigue,2023-01-12,2023-01-26,12,26,N,MILD,RECOVERING,DRUG WITHDRAWN,RELATED,UNKNOWN,,,General disorders and administration site conditions,136
VIRALBLOCK01,AE,VIRALBLOCK01-136,1,Fatigue,2023-01-12,2023-01-26,12,26,N,MILD,RECOVERING,DRUG WITHDRAWN,RELATED,N,,,General disorders and administration site conditions,136
VIRALBLOCK01,AE,VIRALBLOCK01-136,1,Fatigue,2023-01-12,2023-01-26,12,26,N,MILD,RECOVERING,DRUG WITHDRAWN,RELATED,Y,,,General disorders and administration site conditions,136
VIRALBLOCK01,AE,VIRALBLOCK01-137,1,Fever,2023-01-20,2023-01-24,20,24,N,MILD,RECOVERED,DRUG WITHDRAWN,NOT RELATED,Y,,,General disorders and administration site conditions,137
VIRALBLOCK01,AE,VIRALBLOCK01-137,1,Fever,2023-01-20,2023-01-24,20,24,N,MILD,RECOVERED,DRUG WITHDRAWN,NOT RELATED,UNKNOWN,,,General disorders and administration site conditions,137
VIRALBLOCK01,AE,VIRALBLOCK01-137,1,Fever,2023-01-20,2023-01-24,20,24,N,MILD,RECOVERED,DRUG WITHDRAWN,NOT RELATED,N,,,General disorders and administration site conditions,137
VIRALBLOCK01,AE,VIRALBLOCK01-138,1,Nausea,2023-01-15,2023-02-01,15,32,N,MILD,RECOVERED,DRUG WITHDRAWN,POSSIBLY RELATED,Y,,,Gastrointestinal disorders,138
VIRALBLOCK01,AE,VIRALBLOCK01-138,1,Nausea,2023-01-15,2023-02-01,15,32,N,MILD,RECOVERED,DRUG WITHDRAWN,POSSIBLY RELATED,N,,,Gastrointestinal disorders,138
VIRALBLOCK01,AE,VIRALBLOCK01-138,1,Nausea,2023-01-15,2023-02-01,15,32,N,MILD,RECOVERED,DRUG WITHDRAWN,POSSIBLY RELATED,UNKNOWN,,,Gastrointestinal disorders,138
VIRALBLOCK01,AE,VIRALBLOCK01-138,1,Rash,2023-01-17,2023-02-01,17,32,N,MODERATE,RECOVERED,DRUG WITHDRAWN,RELATED,Y,Y,,Skin and subcutaneous tissue disorders,138
VIRALBLOCK01,AE,VIRALBLOCK01-138,1,Rash,2023-01-17,2023-02-01,17,32,N,MODERATE,RECOVERED,DRUG WITHDRAWN,RELATED,UNKNOWN,Y,,Skin and subcutaneous tissue disorders,138
VIRALBLOCK01,AE,VIRALBLOCK01-138,1,Rash,2023-01-17,2023-02-01,17,32,N,MODERATE,RECOVERED,DRUG WITHDRAWN,RELATED,N,Y,,Skin and subcutaneous tissue disorders,138
VIRALBLOCK01,AE,VIRALBLOCK01-140,1,Rash,2023-01-10,2023-01-27,10,27,N,MILD,RECOVERED,NONE,POSSIBLY RELATED,Y,Y,,Skin and subcutaneous tissue disorders,140
VIRALBLOCK01,AE,VIRALBLOCK01-140,1,Rash,2023-01-10,2023-01-27,10,27,N,MILD,RECOVERED,NONE,POSSIBLY RELATED,N,Y,,Skin and subcutaneous tissue disorders,140
VIRALBLOCK01,AE,VIRALBLOCK01-140,1,Rash,2023-01-10,2023-01-27,10,27,N,MILD,RECOVERED,NONE,POSSIBLY RELATED,UNKNOWN,Y,,Skin and subcutaneous tissue disorders,140
VIRALBLOCK01,AE,VIRALBLOCK01-140,1,Cough,2023-01-11,2023-01-21,11,21,Y,MILD,RECOVERED,NONE,NOT RELATED,UNKNOWN,Y,,Respiratory disorders,140
VIRALBLOCK01,AE,VIRALBLOCK01-140,1,Cough,2023-01-11,2023-01-21,11,21,Y,MILD,RECOVERED,NONE,NOT RELATED,Y,Y,,Respiratory disorders,140
VIRALBLOCK01,AE,VIRALBLOCK01-140,1,Cough,2023-01-11,2023-01-21,11,21,Y,MILD,RECOVERED,NONE,NOT RELATED,N,Y,,Respiratory disorders,140
VIRALBLOCK01,AE,VIRALBLOCK01-142,1,Fever,2023-01-11,2023-01-28,11,28,N,MODERATE,RECOVERED,NONE,NOT RELATED,N,,,General disorders and administration site conditions,142
VIRALBLOCK01,AE,VIRALBLOCK01-142,1,Fever,2023-01-11,2023-01-28,11,28,N,MODERATE,RECOVERED,NONE,NOT RELATED,UNKNOWN,,,General disorders and administration site conditions,142
VIRALBLOCK01,AE,VIRALBLOCK01-142,1,Fever,2023-01-11,2023-01-28,11,28,N,MODERATE,RECOVERED,NONE,NOT RELATED,Y,,,General disorders and administration site conditions,142
VIRALBLOCK01,AE,VIRALBLOCK01-142,1,Rash,2023-01-17,2023-01-27,17,27,N,MODERATE,RECOVERED,DRUG WITHDRAWN,NOT RELATED,Y,Y,,Skin and subcutaneous tissue disorders,142
VIRALBLOCK01,AE,VIRALBLOCK01-142,1,Rash,2023-01-17,2023-01-27,17,27,N,MODERATE,RECOVERED,DRUG WITHDRAWN,NOT RELATED,N,Y,,Skin and subcutaneous tissue disorders,142
VIRALBLOCK01,AE,VIRALBLOCK01-142,1,Rash,2023-01-17,2023-01-27,17,27,N,MODERATE,RECOVERED,DRUG WITHDRAWN,NOT RELATED,UNKNOWN,Y,,Skin and subcutaneous tissue disorders,142
VIRALBLOCK01,AE,VIRALBLOCK01-143,1,Fatigue,2023-01-05,2023-01-16,5,16,N,MODERATE,RECOVERED,DOSE REDUCED,RELATED,UNKNOWN,Y,,General disorders and administration site conditions,143
VIRALBLOCK01,AE,VIRALBLOCK01-143,1,Fatigue,2023-01-05,2023-01-16,5,16,N,MODERATE,RECOVERED,DOSE REDUCED,RELATED,Y,Y,,General disorders and administration site conditions,143
VIRALBLOCK01,AE,VIRALBLOCK01-143,1,Fatigue,2023-01-05,2023-01-16,5,16,N,MODERATE,RECOVERED,DOSE REDUCED,RELATED,N,Y,,General disorders and administration site conditions,143
VIRALBLOCK01,AE,VIRALBLOCK01-143,1,Rash,2023-01-07,2023-01-26,7,26,N,MILD,RECOVERED,DRUG WITHDRAWN,RELATED,UNKNOWN,Y,,Skin and subcutaneous tissue disorders,143
VIRALBLOCK01,AE,VIRALBLOCK01-143,1,Rash,2023-01-07,2023-01-26,7,26,N,MILD,RECOVERED,DRUG WITHDRAWN,RELATED,N,Y,,Skin and subcutaneous tissue disorders,143
VIRALBLOCK01,AE,VIRALBLOCK01-143,1,Rash,2023-01-07,2023-01-26,7,26,N,MILD,RECOVERED,DRUG WITHDRAWN,RELATED,Y,Y,,Skin and subcutaneous tissue disorders,143
VIRALBLOCK01,AE,VIRALBLOCK01-143,1,Rash,2023-01-08,2023-01-18,8,18,N,MODERATE,RECOVERED,NONE,RELATED,N,Y,,Skin and subcutaneous tissue disorders,143
VIRALBLOCK01,AE,VIRALBLOCK01-143,1,Rash,2023-01-08,2023-01-18,8,18,N,MODERATE,RECOVERED,NONE,RELATED,Y,Y,,Skin and subcutaneous tissue disorders,143
VIRALBLOCK01,AE,VIRALBLOCK01-143,1,Rash,2023-01-08,2023-01-18,8,18,N,MODERATE,RECOVERED,NONE,RELATED,UNKNOWN,Y,,Skin and subcutaneous tissue disorders,143
VIRALBLOCK01,AE,VIRALBLOCK01-144,1,Fatigue,2023-01-21,2023-01-23,21,23,Y,MILD,RECOVERED,DOSE REDUCED,RELATED,N,Y,,General disorders and administration site conditions,144
VIRALBLOCK01,AE,VIRALBLOCK01-144,1,Fatigue,2023-01-21,2023-01-23,21,23,Y,MILD,RECOVERED,DOSE REDUCED,RELATED,UNKNOWN,Y,,General disorders and administration site conditions,144
VIRALBLOCK01,AE,VIRALBLOCK01-144,1,Fatigue,2023-01-21,2023-01-23,21,23,Y,MILD,RECOVERED,DOSE REDUCED,RELATED,Y,Y,,General disorders and administration site conditions,144
VIRALBLOCK01,AE,VIRALBLOCK01-146,1,Headache,2023-01-15,2023-01-25,15,25,N,MODERATE,RECOVERED,DRUG WITHDRAWN,RELATED,N,Y,,Nervous system disorders,146
VIRALBLOCK01,AE,VIRALBLOCK01-146,1,Headache,2023-01-15,2023-01-25,15,25,N,MODERATE,RECOVERED,DRUG WITHDRAWN,RELATED,UNKNOWN,Y,,Nervous system disorders,146
VIRALBLOCK01,AE,VIRALBLOCK01-146,1,Headache,2023-01-15,2023-01-25,15,25,N,MODERATE,RECOVERED,DRUG WITHDRAWN,RELATED,Y,Y,,Nervous system disorders,146
VIRALBLOCK01,AE,VIRALBLOCK01-147,1,Nausea,2023-01-01,2023-01-25,1,25,N,MODERATE,RECOVERED,DOSE REDUCED,RELATED,UNKNOWN,Y,,Gastrointestinal disorders,147
VIRALBLOCK01,AE,VIRALBLOCK01-147,1,Nausea,2023-01-01,2023-01-25,1,25,N,MODERATE,RECOVERED,DOSE REDUCED,RELATED,Y,Y,,Gastrointestinal disorders,147
VIRALBLOCK01,AE,VIRALBLOCK01-147,1,Nausea,2023-01-01,2023-01-25,1,25,N,MODERATE,RECOVERED,DOSE REDUCED,RELATED,N,Y,,Gastrointestinal disorders,147
VIRALBLOCK01,AE,VIRALBLOCK01-148,1,Cough,2023-01-09,2023-01-29,9,29,N,MODERATE,RECOVERED,DOSE REDUCED,NOT RELATED,Y,,,Respiratory disorders,148
VIRALBLOCK01,AE,VIRALBLOCK01-148,1,Cough,2023-01-09,2023-01-29,9,29,N,MODERATE,RECOVERED,DOSE REDUCED,NOT RELATED,N,,,Respiratory disorders,148
VIRALBLOCK01,AE,VIRALBLOCK01-148,1,Cough,2023-01-09,2023-01-29,9,29,N,MODERATE,RECOVERED,DOSE REDUCED,NOT RELATED,UNKNOWN,,,Respiratory disorders,148
VIRALBLOCK01,AE,VIRALBLOCK01-149,1,Rash,2023-01-22,2023-02-03,22,34,N,MODERATE,RECOVERED,DOSE REDUCED,POSSIBLY RELATED,Y,,,Skin and subcutaneous tissue disorders,149
VIRALBLOCK01,AE,VIRALBLOCK01-149,1,Rash,2023-01-22,2023-02-03,22,34,N,MODERATE,RECOVERED,DOSE REDUCED,POSSIBLY RELATED,N,,,Skin and subcutaneous tissue disorders,149
VIRALBLOCK01,AE,VIRALBLOCK01-149,1,Rash,2023-01-22,2023-02-03,22,34,N,MODERATE,RECOVERED,DOSE REDUCED,POSSIBLY RELATED,UNKNOWN,,,Skin and subcutaneous tissue disorders,149
VIRALBLOCK01,AE,VIRALBLOCK01-150,1,Cough,2023-01-11,2023-01-23,11,23,N,MILD,RECOVERED,DRUG WITHDRAWN,RELATED,UNKNOWN,Y,,Respiratory disorders,150
VIRALBLOCK01,AE,VIRALBLOCK01-150,1,Cough,2023-01-11,2023-01-23,11,23,N,MILD,RECOVERED,DRUG WITHDRAWN,RELATED,Y,Y,,Respiratory disorders,150
VIRALBLOCK01,AE,VIRALBLOCK01-150,1,Cough,2023-01-11,2023-01-23,11,23,N,MILD,RECOVERED,DRUG WITHDRAWN,RELATED,N,Y,,Respiratory disorders,150
VIRALBLOCK01,AE,VIRALBLOCK01-150,1,Cough,2023-01-15,2023-01-24,15,24,N,MILD,RECOVERED,DOSE REDUCED,RELATED,Y,Y,,Respiratory disorders,150
VIRALBLOCK01,AE,VIRALBLOCK01-150,1,Cough,2023-01-15,2023-01-24,15,24,N,MILD,RECOVERED,DOSE REDUCED,RELATED,N,Y,,Respiratory disorders,150
VIRALBLOCK01,AE,VIRALBLOCK01-150,1,Cough,2023-01-15,2023-01-24,15,24,N,MILD,RECOVERED,DOSE REDUCED,RELATED,UNKNOWN,Y,,Respiratory disorders,150
VIRALBLOCK01,AE,VIRALBLOCK01-151,1,Headache,2023-01-08,2023-01-27,8,27,N,MILD,RECOVERED,DOSE REDUCED,RELATED,UNKNOWN,,,Nervous system disorders,151
VIRALBLOCK01,AE,VIRALBLOCK01-151,1,Headache,2023-01-08,2023-01-27,8,27,N,MILD,RECOVERED,DOSE REDUCED,RELATED,N,,,Nervous system disorders,151
VIRALBLOCK01,AE,VIRALBLOCK01-151,1,Headache,2023-01-08,2023-01-27,8,27,N,MILD,RECOVERED,DOSE REDUCED,RELATED,Y,,,Nervous system disorders,151
VIRALBLOCK01,AE,VIRALBLOCK01-152,1,Fatigue,2023-01-19,2023-01-28,19,28,N,SEVERE,RECOVERING,NONE,POSSIBLY RELATED,Y,,,General disorders and administration site conditions,152
VIRALBLOCK01,AE,VIRALBLOCK01-152,1,Fatigue,2023-01-19,2023-01-28,19,28,N,SEVERE,RECOVERING,NONE,POSSIBLY RELATED,UNKNOWN,,,General disorders and administration site conditions,152
VIRALBLOCK01,AE,VIRALBLOCK01-152,1,Fatigue,2023-01-19,2023-01-28,19,28,N,SEVERE,RECOVERING,NONE,POSSIBLY RELATED,N,,,General disorders and administration site conditions,152
VIRALBLOCK01,AE,VIRALBLOCK01-153,1,Rash,2023-01-14,2023-01-28,14,28,N,MODERATE,RECOVERING,DOSE REDUCED,POSSIBLY RELATED,UNKNOWN,Y,,Skin and subcutaneous tissue disorders,153
VIRALBLOCK01,AE,VIRALBLOCK01-153,1,Rash,2023-01-14,2023-01-28,14,28,N,MODERATE,RECOVERING,DOSE REDUCED,POSSIBLY RELATED,N,Y,,Skin and subcutaneous tissue disorders,153
VIRALBLOCK01,AE,VIRALBLOCK01-153,1,Rash,2023-01-14,2023-01-28,14,28,N,MODERATE,RECOVERING,DOSE REDUCED,POSSIBLY RELATED,Y,Y,,Skin and subcutaneous tissue disorders,153
VIRALBLOCK01,AE,VIRALBLOCK01-153,1,Fever,2023-01-18,2023-02-07,18,38,N,MILD,RECOVERED,NONE,RELATED,N,Y,,General disorders and administration site conditions,153
VIRALBLOCK01,AE,VIRALBLOCK01-153,1,Fever,2023-01-18,2023-02-07,18,38,N,MILD,RECOVERED,NONE,RELATED,Y,Y,,General disorders and administration site conditions,153
VIRALBLOCK01,AE,VIRALBLOCK01-153,1,Fever,2023-01-18,2023-02-07,18,38,N,MILD,RECOVERED,NONE,RELATED,UNKNOWN,Y,,General disorders and administration site conditions,153
VIRALBLOCK01,AE,VIRALBLOCK01-153,1,Fatigue,2023-01-21,2023-02-05,21,36,N,MODERATE,RECOVERED,DOSE REDUCED,RELATED,Y,Y,,General disorders and administration site conditions,153
VIRALBLOCK01,AE,VIRALBLOCK01-153,1,Fatigue,2023-01-21,2023-02-05,21,36,N,MODERATE,RECOVERED,DOSE REDUCED,RELATED,N,Y,,General disorders and administration site conditions,153
VIRALBLOCK01,AE,VIRALBLOCK01-153,1,Fatigue,2023-01-21,2023-02-05,21,36,N,MODERATE,RECOVERED,DOSE REDUCED,RELATED,UNKNOWN,Y,,General disorders and administration site conditions,153
VIRALBLOCK01,AE,VIRALBLOCK01-154,1,Cough,2023-01-03,2023-01-17,3,17,N,MILD,RECOVERED,DOSE REDUCED,NOT RELATED,N,,,Respiratory disorders,154
VIRALBLOCK01,AE,VIRALBLOCK01-154,1,Cough,2023-01-03,2023-01-17,3,17,N,MILD,RECOVERED,DOSE REDUCED,NOT RELATED,UNKNOWN,,,Respiratory disorders,154
VIRALBLOCK01,AE,VIRALBLOCK01-154,1,Cough,2023-01-03,2023-01-17,3,17,N,MILD,RECOVERED,DOSE REDUCED,NOT RELATED,Y,,,Respiratory disorders,154
VIRALBLOCK01,AE,VIRALBLOCK01-155,1,Rash,2023-01-14,2023-01-28,14,28,N,MILD,RECOVERED,DRUG WITHDRAWN,RELATED,Y,,,Skin and subcutaneous tissue disorders,155
VIRALBLOCK01,AE,VIRALBLOCK01-155,1,Rash,2023-01-14,2023-01-28,14,28,N,MILD,RECOVERED,DRUG WITHDRAWN,RELATED,UNKNOWN,,,Skin and subcutaneous tissue disorders,155
VIRALBLOCK01,AE,VIRALBLOCK01-155,1,Rash,2023-01-14,2023-01-28,14,28,N,MILD,RECOVERED,DRUG WITHDRAWN,RELATED,N,,,Skin and subcutaneous tissue disorders,155
VIRALBLOCK01,AE,VIRALBLOCK01-157,1,Fever,2023-01-10,2023-01-26,10,26,N,MILD,RECOVERED,NONE,POSSIBLY RELATED,N,,,General disorders and administration site conditions,157
VIRALBLOCK01,AE,VIRALBLOCK01-157,1,Fever,2023-01-10,2023-01-26,10,26,N,MILD,RECOVERED,NONE,POSSIBLY RELATED,Y,,,General disorders and administration site conditions,157
VIRALBLOCK01,AE,VIRALBLOCK01-157,1,Fever,2023-01-10,2023-01-26,10,26,N,MILD,RECOVERED,NONE,POSSIBLY RELATED,UNKNOWN,,,General disorders and administration site conditions,157
VIRALBLOCK01,AE,VIRALBLOCK01-159,1,Fever,2023-01-17,2023-01-22,17,22,N,MILD,RECOVERED,DRUG WITHDRAWN,NOT RELATED,Y,,,General disorders and administration site conditions,159
VIRALBLOCK01,AE,VIRALBLOCK01-159,1,Fever,2023-01-17,2023-01-22,17,22,N,MILD,RECOVERED,DRUG WITHDRAWN,NOT RELATED,UNKNOWN,,,General disorders and administration site conditions,159
VIRALBLOCK01,AE,VIRALBLOCK01-159,1,Fever,2023-01-17,2023-01-22,17,22,N,MILD,RECOVERED,DRUG WITHDRAWN,NOT RELATED,N,,,General disorders and administration site conditions,159
VIRALBLOCK01,AE,VIRALBLOCK01-160,1,Fatigue,2023-01-19,2023-02-02,19,33,N,MODERATE,RECOVERED,DOSE REDUCED,POSSIBLY RELATED,N,Y,,General disorders and administration site conditions,160
VIRALBLOCK01,AE,VIRALBLOCK01-160,1,Fatigue,2023-01-19,2023-02-02,19,33,N,MODERATE,RECOVERED,DOSE REDUCED,POSSIBLY RELATED,Y,Y,,General disorders and administration site conditions,160
VIRALBLOCK01,AE,VIRALBLOCK01-160,1,Fatigue,2023-01-19,2023-02-02,19,33,N,MODERATE,RECOVERED,DOSE REDUCED,POSSIBLY RELATED,UNKNOWN,Y,,General disorders and administration site conditions,160
VIRALBLOCK01,AE,VIRALBLOCK01-162,1,Nausea,2023-01-16,2023-02-03,16,34,N,SEVERE,RECOVERED,NONE,POSSIBLY RELATED,N,,,Gastrointestinal disorders,162
VIRALBLOCK01,AE,VIRALBLOCK01-162,1,Nausea,2023-01-16,2023-02-03,16,34,N,SEVERE,RECOVERED,NONE,POSSIBLY RELATED,UNKNOWN,,,Gastrointestinal disorders,162
VIRALBLOCK01,AE,VIRALBLOCK01-162,1,Nausea,2023-01-16,2023-02-03,16,34,N,SEVERE,RECOVERED,NONE,POSSIBLY RELATED,Y,,,Gastrointestinal disorders,162
VIRALBLOCK01,AE,VIRALBLOCK01-163,1,Headache,2023-01-05,2023-01-30,5,30,N,MODERATE,RECOVERED,DOSE REDUCED,RELATED,Y,,,Nervous system disorders,163
VIRALBLOCK01,AE,VIRALBLOCK01-163,1,Headache,2023-01-05,2023-01-30,5,30,N,MODERATE,RECOVERED,DOSE REDUCED,RELATED,N,,,Nervous system disorders,163
VIRALBLOCK01,AE,VIRALBLOCK01-163,1,Headache,2023-01-05,2023-01-30,5,30,N,MODERATE,RECOVERED,DOSE REDUCED,RELATED,UNKNOWN,,,Nervous system disorders,163
VIRALBLOCK01,AE,VIRALBLOCK01-164,1,Fatigue,2023-01-09,2023-02-05,9,36,N,SEVERE,NOT RECOVERED,NONE,RELATED,N,,,General disorders and administration site conditions,164
VIRALBLOCK01,AE,VIRALBLOCK01-164,1,Fatigue,2023-01-09,2023-02-05,9,36,N,SEVERE,NOT RECOVERED,NONE,RELATED,UNKNOWN,,,General disorders and administration site conditions,164
VIRALBLOCK01,AE,VIRALBLOCK01-164,1,Fatigue,2023-01-09,2023-02-05,9,36,N,SEVERE,NOT RECOVERED,NONE,RELATED,Y,,,General disorders and administration site conditions,164
VIRALBLOCK01,AE,VIRALBLOCK01-167,1,Fever,2023-01-10,2023-01-22,10,22,N,MODERATE,RECOVERING,NONE,RELATED,Y,Y,,General disorders and administration site conditions,167
VIRALBLOCK01,AE,VIRALBLOCK01-167,1,Fever,2023-01-10,2023-01-22,10,22,N,MODERATE,RECOVERING,NONE,RELATED,N,Y,,General disorders and administration site conditions,167
VIRALBLOCK01,AE,VIRALBLOCK01-167,1,Fever,2023-01-10,2023-01-22,10,22,N,MODERATE,RECOVERING,NONE,RELATED,UNKNOWN,Y,,General disorders and administration site conditions,167
VIRALBLOCK01,AE,VIRALBLOCK01-168,1,Fever,2023-01-02,2023-01-22,2,22,N,MILD,NOT RECOVERED,NONE,RELATED,UNKNOWN,,,General disorders and administration site conditions,168
VIRALBLOCK01,AE,VIRALBLOCK01-168,1,Fever,2023-01-02,2023-01-22,2,22,N,MILD,NOT RECOVERED,NONE,RELATED,N,,,General disorders and administration site conditions,168
VIRALBLOCK01,AE,VIRALBLOCK01-168,1,Fever,2023-01-02,2023-01-22,2,22,N,MILD,NOT RECOVERED,NONE,RELATED,Y,,,General disorders and administration site conditions,168
VIRALBLOCK01,AE,VIRALBLOCK01-168,1,Fatigue,2023-01-03,2023-01-22,3,22,N,MODERATE,RECOVERED,NONE,NOT RELATED,UNKNOWN,Y,,General disorders and administration site conditions,168
VIRALBLOCK01,AE,VIRALBLOCK01-168,1,Fatigue,2023-01-03,2023-01-22,3,22,N,MODERATE,RECOVERED,NONE,NOT RELATED,N,Y,,General disorders and administration site conditions,168
VIRALBLOCK01,AE,VIRALBLOCK01-168,1,Fatigue,2023-01-03,2023-01-22,3,22,N,MODERATE,RECOVERED,NONE,NOT RELATED,Y,Y,,General disorders and administration site conditions,168
VIRALBLOCK01,AE,VIRALBLOCK01-168,1,Rash,2023-01-04,2023-01-29,4,29,N,MILD,NOT RECOVERED,DOSE REDUCED,NOT RELATED,UNKNOWN,Y,,Skin and subcutaneous tissue disorders,168
VIRALBLOCK01,AE,VIRALBLOCK01-168,1,Rash,2023-01-04,2023-01-29,4,29,N,MILD,NOT RECOVERED,DOSE REDUCED,NOT RELATED,N,Y,,Skin and subcutaneous tissue disorders,168
VIRALBLOCK01,AE,VIRALBLOCK01-168,1,Rash,2023-01-04,2023-01-29,4,29,N,MILD,NOT RECOVERED,DOSE REDUCED,NOT RELATED,Y,Y,,Skin and subcutaneous tissue disorders,168
VIRALBLOCK01,AE,VIRALBLOCK01-170,1,Fatigue,2023-01-07,2023-01-20,7,20,N,MILD,RECOVERED,NONE,RELATED,UNKNOWN,Y,,General disorders and administration site conditions,170
VIRALBLOCK01,AE,VIRALBLOCK01-170,1,Fatigue,2023-01-07,2023-01-20,7,20,N,MILD,RECOVERED,NONE,RELATED,N,Y,,General disorders and administration site conditions,170
VIRALBLOCK01,AE,VIRALBLOCK01-170,1,Fatigue,2023-01-07,2023-01-20,7,20,N,MILD,RECOVERED,NONE,RELATED,Y,Y,,General disorders and administration site conditions,170
VIRALBLOCK01,AE,VIRALBLOCK01-171,1,Nausea,2023-01-12,2023-02-03,12,34,N,MODERATE,NOT RECOVERED,DRUG WITHDRAWN,RELATED,UNKNOWN,Y,,Gastrointestinal disorders,171
VIRALBLOCK01,AE,VIRALBLOCK01-171,1,Nausea,2023-01-12,2023-02-03,12,34,N,MODERATE,NOT RECOVERED,DRUG WITHDRAWN,RELATED,Y,Y,,Gastrointestinal disorders,171
VIRALBLOCK01,AE,VIRALBLOCK01-171,1,Nausea,2023-01-12,2023-02-03,12,34,N,MODERATE,NOT RECOVERED,DRUG WITHDRAWN,RELATED,N,Y,,Gastrointestinal disorders,171
VIRALBLOCK01,AE,VIRALBLOCK01-171,1,Fever,2023-01-23,2023-02-06,23,37,N,SEVERE,NOT RECOVERED,DOSE REDUCED,NOT RELATED,Y,Y,,General disorders and administration site conditions,171
VIRALBLOCK01,AE,VIRALBLOCK01-171,1,Fever,2023-01-23,2023-02-06,23,37,N,SEVERE,NOT RECOVERED,DOSE REDUCED,NOT RELATED,N,Y,,General disorders and administration site conditions,171
VIRALBLOCK01,AE,VIRALBLOCK01-171,1,Fever,2023-01-23,2023-02-06,23,37,N,SEVERE,NOT RECOVERED,DOSE REDUCED,NOT RELATED,UNKNOWN,Y,,General disorders and administration site conditions,171
VIRALBLOCK01,AE,VIRALBLOCK01-172,1,Cough,2023-01-12,2023-02-06,12,37,N,SEVERE,RECOVERING,DOSE REDUCED,POSSIBLY RELATED,UNKNOWN,Y,,Respiratory disorders,172
VIRALBLOCK01,AE,VIRALBLOCK01-172,1,Cough,2023-01-12,2023-02-06,12,37,N,SEVERE,RECOVERING,DOSE REDUCED,POSSIBLY RELATED,Y,Y,,Respiratory disorders,172
VIRALBLOCK01,AE,VIRALBLOCK01-172,1,Cough,2023-01-12,2023-02-06,12,37,N,SEVERE,RECOVERING,DOSE REDUCED,POSSIBLY RELATED,N,Y,,Respiratory disorders,172
VIRALBLOCK01,AE,VIRALBLOCK01-172,1,Nausea,2023-01-12,2023-01-25,12,25,N,SEVERE,RECOVERING,DOSE REDUCED,NOT RELATED,N,,,Gastrointestinal disorders,172
VIRALBLOCK01,AE,VIRALBLOCK01-172,1,Nausea,2023-01-12,2023-01-25,12,25,N,SEVERE,RECOVERING,DOSE REDUCED,NOT RELATED,UNKNOWN,,,Gastrointestinal disorders,172
VIRALBLOCK01,AE,VIRALBLOCK01-172,1,Nausea,2023-01-12,2023-01-25,12,25,N,SEVERE,RECOVERING,DOSE REDUCED,NOT RELATED,Y,,,Gastrointestinal disorders,172
VIRALBLOCK01,AE,VIRALBLOCK01-172,1,Cough,2023-01-17,2023-01-30,17,30,N,MILD,RECOVERED,DRUG WITHDRAWN,RELATED,UNKNOWN,,,Respiratory disorders,172
VIRALBLOCK01,AE,VIRALBLOCK01-172,1,Cough,2023-01-17,2023-01-30,17,30,N,MILD,RECOVERED,DRUG WITHDRAWN,RELATED,Y,,,Respiratory disorders,172
VIRALBLOCK01,AE,VIRALBLOCK01-172,1,Cough,2023-01-17,2023-01-30,17,30,N,MILD,RECOVERED,DRUG WITHDRAWN,RELATED,N,,,Respiratory disorders,172
VIRALBLOCK01,AE,VIRALBLOCK01-173,1,Cough,2023-01-13,2023-02-02,13,33,N,MODERATE,RECOVERED,DRUG WITHDRAWN,RELATED,N,Y,,Respiratory disorders,173
VIRALBLOCK01,AE,VIRALBLOCK01-173,1,Cough,2023-01-13,2023-02-02,13,33,N,MODERATE,RECOVERED,DRUG WITHDRAWN,RELATED,UNKNOWN,Y,,Respiratory disorders,173
VIRALBLOCK01,AE,VIRALBLOCK01-173,1,Cough,2023-01-13,2023-02-02,13,33,N,MODERATE,RECOVERED,DRUG WITHDRAWN,RELATED,Y,Y,,Respiratory disorders,173
VIRALBLOCK01,AE,VIRALBLOCK01-173,1,Rash,2023-01-14,2023-02-01,14,32,N,MODERATE,RECOVERED,DRUG WITHDRAWN,RELATED,UNKNOWN,Y,,Skin and subcutaneous tissue disorders,173
VIRALBLOCK01,AE,VIRALBLOCK01-173,1,Rash,2023-01-14,2023-02-01,14,32,N,MODERATE,RECOVERED,DRUG WITHDRAWN,RELATED,Y,Y,,Skin and subcutaneous tissue disorders,173
VIRALBLOCK01,AE,VIRALBLOCK01-173,1,Rash,2023-01-14,2023-02-01,14,32,N,MODERATE,RECOVERED,DRUG WITHDRAWN,RELATED,N,Y,,Skin and subcutaneous tissue disorders,173
VIRALBLOCK01,AE,VIRALBLOCK01-173,1,Cough,2023-01-25,2023-02-01,25,32,N,MILD,NOT RECOVERED,DOSE REDUCED,NOT RELATED,N,Y,,Respiratory disorders,173
VIRALBLOCK01,AE,VIRALBLOCK01-173,1,Cough,2023-01-25,2023-02-01,25,32,N,MILD,NOT RECOVERED,DOSE REDUCED,NOT RELATED,UNKNOWN,Y,,Respiratory disorders,173
VIRALBLOCK01,AE,VIRALBLOCK01-173,1,Cough,2023-01-25,2023-02-01,25,32,N,MILD,NOT RECOVERED,DOSE REDUCED,NOT RELATED,Y,Y,,Respiratory disorders,173
VIRALBLOCK01,AE,VIRALBLOCK01-176,1,Fatigue,2023-01-16,2023-01-29,16,29,N,MILD,RECOVERED,DRUG WITHDRAWN,RELATED,N,,,General disorders and administration site conditions,176
VIRALBLOCK01,AE,VIRALBLOCK01-176,1,Fatigue,2023-01-16,2023-01-29,16,29,N,MILD,RECOVERED,DRUG WITHDRAWN,RELATED,Y,,,General disorders and administration site conditions,176
VIRALBLOCK01,AE,VIRALBLOCK01-176,1,Fatigue,2023-01-16,2023-01-29,16,29,N,MILD,RECOVERED,DRUG WITHDRAWN,RELATED,UNKNOWN,,,General disorders and administration site conditions,176
VIRALBLOCK01,AE,VIRALBLOCK01-176,1,Headache,2023-01-22,2023-02-05,22,36,N,MILD,RECOVERING,DOSE REDUCED,RELATED,Y,,,Nervous system disorders,176
VIRALBLOCK01,AE,VIRALBLOCK01-176,1,Headache,2023-01-22,2023-02-05,22,36,N,MILD,RECOVERING,DOSE REDUCED,RELATED,N,,,Nervous system disorders,176
VIRALBLOCK01,AE,VIRALBLOCK01-176,1,Headache,2023-01-22,2023-02-05,22,36,N,MILD,RECOVERING,DOSE REDUCED,RELATED,UNKNOWN,,,Nervous system disorders,176
VIRALBLOCK01,AE,VIRALBLOCK01-177,1,Cough,2023-01-19,2023-02-02,19,33,N,MILD,RECOVERED,DRUG WITHDRAWN,POSSIBLY RELATED,UNKNOWN,Y,,Respiratory disorders,177
VIRALBLOCK01,AE,VIRALBLOCK01-177,1,Cough,2023-01-19,2023-02-02,19,33,N,MILD,RECOVERED,DRUG WITHDRAWN,POSSIBLY RELATED,Y,Y,,Respiratory disorders,177
VIRALBLOCK01,AE,VIRALBLOCK01-177,1,Cough,2023-01-19,2023-02-02,19,33,N,MILD,RECOVERED,DRUG WITHDRAWN,POSSIBLY RELATED,N,Y,,Respiratory disorders,177
VIRALBLOCK01,AE,VIRALBLOCK01-178,1,Fatigue,2023-01-09,2023-01-24,9,24,N,MILD,RECOVERING,DRUG WITHDRAWN,RELATED,Y,,,General disorders and administration site conditions,178
VIRALBLOCK01,AE,VIRALBLOCK01-178,1,Fatigue,2023-01-09,2023-01-24,9,24,N,MILD,RECOVERING,DRUG WITHDRAWN,RELATED,N,,,General disorders and administration site conditions,178
VIRALBLOCK01,AE,VIRALBLOCK01-178,1,Fatigue,2023-01-09,2023-01-24,9,24,N,MILD,RECOVERING,DRUG WITHDRAWN,RELATED,UNKNOWN,,,General disorders and administration site conditions,178
VIRALBLOCK01,AE,VIRALBLOCK01-179,1,Fatigue,2023-01-05,2023-01-26,5,26,N,SEVERE,RECOVERED,DOSE REDUCED,NOT RELATED,N,Y,,General disorders and administration site conditions,179
VIRALBLOCK01,AE,VIRALBLOCK01-179,1,Fatigue,2023-01-05,2023-01-26,5,26,N,SEVERE,RECOVERED,DOSE REDUCED,NOT RELATED,UNKNOWN,Y,,General disorders and administration site conditions,179
VIRALBLOCK01,AE,VIRALBLOCK01-179,1,Fatigue,2023-01-05,2023-01-26,5,26,N,SEVERE,RECOVERED,DOSE REDUCED,NOT RELATED,Y,Y,,General disorders and administration site conditions,179
VIRALBLOCK01,AE,VIRALBLOCK01-179,1,Fever,2023-01-07,2023-01-19,7,19,N,MODERATE,RECOVERING,DRUG WITHDRAWN,POSSIBLY RELATED,Y,Y,,General disorders and administration site conditions,179
VIRALBLOCK01,AE,VIRALBLOCK01-179,1,Fever,2023-01-07,2023-01-19,7,19,N,MODERATE,RECOVERING,DRUG WITHDRAWN,POSSIBLY RELATED,N,Y,,General disorders and administration site conditions,179
VIRALBLOCK01,AE,VIRALBLOCK01-179,1,Fever,2023-01-07,2023-01-19,7,19,N,MODERATE,RECOVERING,DRUG WITHDRAWN,POSSIBLY RELATED,UNKNOWN,Y,,General disorders and administration site conditions,179
VIRALBLOCK01,AE,VIRALBLOCK01-180,1,Cough,2023-01-06,2023-01-26,6,26,Y,MODERATE,RECOVERED,DOSE REDUCED,NOT RELATED,Y,Y,,Respiratory disorders,180
VIRALBLOCK01,AE,VIRALBLOCK01-180,1,Cough,2023-01-06,2023-01-26,6,26,Y,MODERATE,RECOVERED,DOSE REDUCED,NOT RELATED,N,Y,,Respiratory disorders,180
VIRALBLOCK01,AE,VIRALBLOCK01-180,1,Cough,2023-01-06,2023-01-26,6,26,Y,MODERATE,RECOVERED,DOSE REDUCED,NOT RELATED,UNKNOWN,Y,,Respiratory disorders,180
VIRALBLOCK01,AE,VIRALBLOCK01-180,1,Rash,2023-01-11,2023-01-20,11,20,N,MILD,RECOVERING,DOSE REDUCED,RELATED,N,Y,,Skin and subcutaneous tissue disorders,180
VIRALBLOCK01,AE,VIRALBLOCK01-180,1,Rash,2023-01-11,2023-01-20,11,20,N,MILD,RECOVERING,DOSE REDUCED,RELATED,Y,Y,,Skin and subcutaneous tissue disorders,180
VIRALBLOCK01,AE,VIRALBLOCK01-180,1,Rash,2023-01-11,2023-01-20,11,20,N,MILD,RECOVERING,DOSE REDUCED,RELATED,UNKNOWN,Y,,Skin and subcutaneous tissue disorders,180
VIRALBLOCK01,AE,VIRALBLOCK01-182,1,Fever,2023-01-14,2023-02-05,14,36,N,MILD,RECOVERED,DRUG WITHDRAWN,NOT RELATED,UNKNOWN,,,General disorders and administration site conditions,182
VIRALBLOCK01,AE,VIRALBLOCK01-182,1,Fever,2023-01-14,2023-02-05,14,36,N,MILD,RECOVERED,DRUG WITHDRAWN,NOT RELATED,Y,,,General disorders and administration site conditions,182
VIRALBLOCK01,AE,VIRALBLOCK01-182,1,Fever,2023-01-14,2023-02-05,14,36,N,MILD,RECOVERED,DRUG WITHDRAWN,NOT RELATED,N,,,General disorders and administration site conditions,182
VIRALBLOCK01,AE,VIRALBLOCK01-182,1,Fatigue,2023-01-15,2023-02-04,15,35,N,MILD,RECOVERED,NONE,POSSIBLY RELATED,Y,Y,,General disorders and administration site conditions,182
VIRALBLOCK01,AE,VIRALBLOCK01-182,1,Fatigue,2023-01-15,2023-02-04,15,35,N,MILD,RECOVERED,NONE,POSSIBLY RELATED,N,Y,,General disorders and administration site conditions,182
VIRALBLOCK01,AE,VIRALBLOCK01-182,1,Fatigue,2023-01-15,2023-02-04,15,35,N,MILD,RECOVERED,NONE,POSSIBLY RELATED,UNKNOWN,Y,,General disorders and administration site conditions,182
VIRALBLOCK01,AE,VIRALBLOCK01-183,1,Fatigue,2023-01-14,2023-01-26,14,26,N,SEVERE,RECOVERED,DOSE REDUCED,NOT RELATED,Y,,,General disorders and administration site conditions,183
VIRALBLOCK01,AE,VIRALBLOCK01-183,1,Fatigue,2023-01-14,2023-01-26,14,26,N,SEVERE,RECOVERED,DOSE REDUCED,NOT RELATED,N,,,General disorders and administration site conditions,183
VIRALBLOCK01,AE,VIRALBLOCK01-183,1,Fatigue,2023-01-14,2023-01-26,14,26,N,SEVERE,RECOVERED,DOSE REDUCED,NOT RELATED,UNKNOWN,,,General disorders and administration site conditions,183
VIRALBLOCK01,AE,VIRALBLOCK01-184,1,Rash,2023-01-21,2023-01-31,21,31,N,MODERATE,RECOVERED,NONE,POSSIBLY RELATED,UNKNOWN,,,Skin and subcutaneous tissue disorders,184
VIRALBLOCK01,AE,VIRALBLOCK01-184,1,Rash,2023-01-21,2023-01-31,21,31,N,MODERATE,RECOVERED,NONE,POSSIBLY RELATED,Y,,,Skin and subcutaneous tissue disorders,184
VIRALBLOCK01,AE,VIRALBLOCK01-184,1,Rash,2023-01-21,2023-01-31,21,31,N,MODERATE,RECOVERED,NONE,POSSIBLY RELATED,N,,,Skin and subcutaneous tissue disorders,184
VIRALBLOCK01,AE,VIRALBLOCK01-184,1,Fatigue,2023-01-23,2023-02-04,23,35,N,MILD,RECOVERED,NONE,NOT RELATED,N,Y,,General disorders and administration site conditions,184
VIRALBLOCK01,AE,VIRALBLOCK01-184,1,Fatigue,2023-01-23,2023-02-04,23,35,N,MILD,RECOVERED,NONE,NOT RELATED,UNKNOWN,Y,,General disorders and administration site conditions,184
VIRALBLOCK01,AE,VIRALBLOCK01-184,1,Fatigue,2023-01-23,2023-02-04,23,35,N,MILD,RECOVERED,NONE,NOT RELATED,Y,Y,,General disorders and administration site conditions,184
VIRALBLOCK01,AE,VIRALBLOCK01-185,1,Nausea,2023-01-10,2023-02-03,10,34,N,SEVERE,RECOVERED,DRUG WITHDRAWN,NOT RELATED,UNKNOWN,,,Gastrointestinal disorders,185
VIRALBLOCK01,AE,VIRALBLOCK01-185,1,Nausea,2023-01-10,2023-02-03,10,34,N,SEVERE,RECOVERED,DRUG WITHDRAWN,NOT RELATED,N,,,Gastrointestinal disorders,185
VIRALBLOCK01,AE,VIRALBLOCK01-185,1,Nausea,2023-01-10,2023-02-03,10,34,N,SEVERE,RECOVERED,DRUG WITHDRAWN,NOT RELATED,Y,,,Gastrointestinal disorders,185
VIRALBLOCK01,AE,VIRALBLOCK01-185,1,Fever,2023-01-15,2023-01-25,15,25,Y,MILD,RECOVERED,DOSE REDUCED,POSSIBLY RELATED,N,Y,,General disorders and administration site conditions,185
VIRALBLOCK01,AE,VIRALBLOCK01-185,1,Fever,2023-01-15,2023-01-25,15,25,Y,MILD,RECOVERED,DOSE REDUCED,POSSIBLY RELATED,UNKNOWN,Y,,General disorders and administration site conditions,185
VIRALBLOCK01,AE,VIRALBLOCK01-185,1,Fever,2023-01-15,2023-01-25,15,25,Y,MILD,RECOVERED,DOSE REDUCED,POSSIBLY RELATED,Y,Y,,General disorders and administration site conditions,185
VIRALBLOCK01,AE,VIRALBLOCK01-186,1,Nausea,2023-01-01,2023-01-18,1,18,N,MILD,RECOVERING,NONE,RELATED,UNKNOWN,,,Gastrointestinal disorders,186
VIRALBLOCK01,AE,VIRALBLOCK01-186,1,Nausea,2023-01-01,2023-01-18,1,18,N,MILD,RECOVERING,NONE,RELATED,Y,,,Gastrointestinal disorders,186
VIRALBLOCK01,AE,VIRALBLOCK01-186,1,Nausea,2023-01-01,2023-01-18,1,18,N,MILD,RECOVERING,NONE,RELATED,N,,,Gastrointestinal disorders,186
VIRALBLOCK01,AE,VIRALBLOCK01-187,1,Nausea,2023-01-16,2023-01-29,16,29,N,SEVERE,RECOVERED,NONE,NOT RELATED,UNKNOWN,,,Gastrointestinal disorders,187
VIRALBLOCK01,AE,VIRALBLOCK01-187,1,Nausea,2023-01-16,2023-01-29,16,29,N,SEVERE,RECOVERED,NONE,NOT RELATED,Y,,,Gastrointestinal disorders,187
VIRALBLOCK01,AE,VIRALBLOCK01-187,1,Nausea,2023-01-16,2023-01-29,16,29,N,SEVERE,RECOVERED,NONE,NOT RELATED,N,,,Gastrointestinal disorders,187
VIRALBLOCK01,AE,VIRALBLOCK01-188,1,Nausea,2023-01-09,2023-02-03,9,34,Y,MODERATE,RECOVERED,NONE,NOT RELATED,Y,,,Gastrointestinal disorders,188
VIRALBLOCK01,AE,VIRALBLOCK01-188,1,Nausea,2023-01-09,2023-02-03,9,34,Y,MODERATE,RECOVERED,NONE,NOT RELATED,UNKNOWN,,,Gastrointestinal disorders,188
VIRALBLOCK01,AE,VIRALBLOCK01-188,1,Nausea,2023-01-09,2023-02-03,9,34,Y,MODERATE,RECOVERED,NONE,NOT RELATED,N,,,Gastrointestinal disorders,188
VIRALBLOCK01,AE,VIRALBLOCK01-188,1,Rash,2023-01-10,2023-01-24,10,24,N,MILD,RECOVERED,NONE,NOT RELATED,N,Y,,Skin and subcutaneous tissue disorders,188
VIRALBLOCK01,AE,VIRALBLOCK01-188,1,Rash,2023-01-10,2023-01-24,10,24,N,MILD,RECOVERED,NONE,NOT RELATED,Y,Y,,Skin and subcutaneous tissue disorders,188
VIRALBLOCK01,AE,VIRALBLOCK01-188,1,Rash,2023-01-10,2023-01-24,10,24,N,MILD,RECOVERED,NONE,NOT RELATED,UNKNOWN,Y,,Skin and subcutaneous tissue disorders,188
VIRALBLOCK01,AE,VIRALBLOCK01-188,1,Cough,2023-01-17,2023-01-28,17,28,N,SEVERE,RECOVERED,NONE,RELATED,N,,,Respiratory disorders,188
VIRALBLOCK01,AE,VIRALBLOCK01-188,1,Cough,2023-01-17,2023-01-28,17,28,N,SEVERE,RECOVERED,NONE,RELATED,UNKNOWN,,,Respiratory disorders,188
VIRALBLOCK01,AE,VIRALBLOCK01-188,1,Cough,2023-01-17,2023-01-28,17,28,N,SEVERE,RECOVERED,NONE,RELATED,Y,,,Respiratory disorders,188
VIRALBLOCK01,AE,VIRALBLOCK01-189,1,Headache,2023-01-08,2023-02-01,8,32,N,MILD,RECOVERING,DRUG WITHDRAWN,POSSIBLY RELATED,N,,,Nervous system disorders,189
VIRALBLOCK01,AE,VIRALBLOCK01-189,1,Headache,2023-01-08,2023-02-01,8,32,N,MILD,RECOVERING,DRUG WITHDRAWN,POSSIBLY RELATED,UNKNOWN,,,Nervous system disorders,189
VIRALBLOCK01,AE,VIRALBLOCK01-189,1,Headache,2023-01-08,2023-02-01,8,32,N,MILD,RECOVERING,DRUG WITHDRAWN,POSSIBLY RELATED,Y,,,Nervous system disorders,189
VIRALBLOCK01,AE,VIRALBLOCK01-190,1,Nausea,2023-01-16,2023-01-31,16,31,N,MILD,RECOVERING,DRUG WITHDRAWN,NOT RELATED,UNKNOWN,Y,,Gastrointestinal disorders,190
VIRALBLOCK01,AE,VIRALBLOCK01-190,1,Nausea,2023-01-16,2023-01-31,16,31,N,MILD,RECOVERING,DRUG WITHDRAWN,NOT RELATED,N,Y,,Gastrointestinal disorders,190
VIRALBLOCK01,AE,VIRALBLOCK01-190,1,Nausea,2023-01-16,2023-01-31,16,31,N,MILD,RECOVERING,DRUG WITHDRAWN,NOT RELATED,Y,Y,,Gastrointestinal disorders,190
VIRALBLOCK01,AE,VIRALBLOCK01-193,1,Fever,2023-01-05,2023-01-24,5,24,N,MILD,RECOVERED,NONE,RELATED,N,,,General disorders and administration site conditions,193
VIRALBLOCK01,AE,VIRALBLOCK01-193,1,Fever,2023-01-05,2023-01-24,5,24,N,MILD,RECOVERED,NONE,RELATED,UNKNOWN,,,General disorders and administration site conditions,193
VIRALBLOCK01,AE,VIRALBLOCK01-193,1,Fever,2023-01-05,2023-01-24,5,24,N,MILD,RECOVERED,NONE,RELATED,Y,,,General disorders and administration site conditions,193
VIRALBLOCK01,AE,VIRALBLOCK01-194,1,Nausea,2023-01-13,2023-02-06,13,37,N,SEVERE,RECOVERED,DRUG WITHDRAWN,NOT RELATED,N,,,Gastrointestinal disorders,194
VIRALBLOCK01,AE,VIRALBLOCK01-194,1,Nausea,2023-01-13,2023-02-06,13,37,N,SEVERE,RECOVERED,DRUG WITHDRAWN,NOT RELATED,Y,,,Gastrointestinal disorders,194
VIRALBLOCK01,AE,VIRALBLOCK01-194,1,Nausea,2023-01-13,2023-02-06,13,37,N,SEVERE,RECOVERED,DRUG WITHDRAWN,NOT RELATED,UNKNOWN,,,Gastrointestinal disorders,194
VIRALBLOCK01,AE,VIRALBLOCK01-194,1,Fatigue,2023-01-19,2023-02-04,19,35,N,MODERATE,RECOVERED,NONE,NOT RELATED,N,Y,,General disorders and administration site conditions,194
VIRALBLOCK01,AE,VIRALBLOCK01-194,1,Fatigue,2023-01-19,2023-02-04,19,35,N,MODERATE,RECOVERED,NONE,NOT RELATED,UNKNOWN,Y,,General disorders and administration site conditions,194
VIRALBLOCK01,AE,VIRALBLOCK01-194,1,Fatigue,2023-01-19,2023-02-04,19,35,N,MODERATE,RECOVERED,NONE,NOT RELATED,Y,Y,,General disorders and administration site conditions,194
VIRALBLOCK01,AE,VIRALBLOCK01-194,1,Nausea,2023-01-20,2023-02-06,20,37,N,SEVERE,RECOVERING,DOSE REDUCED,POSSIBLY RELATED,UNKNOWN,,,Gastrointestinal disorders,194
VIRALBLOCK01,AE,VIRALBLOCK01-194,1,Nausea,2023-01-20,2023-02-06,20,37,N,SEVERE,RECOVERING,DOSE REDUCED,POSSIBLY RELATED,Y,,,Gastrointestinal disorders,194
VIRALBLOCK01,AE,VIRALBLOCK01-194,1,Nausea,2023-01-20,2023-02-06,20,37,N,SEVERE,RECOVERING,DOSE REDUCED,POSSIBLY RELATED,N,,,Gastrointestinal disorders,194
VIRALBLOCK01,AE,VIRALBLOCK01-195,1,Cough,2023-01-06,2023-01-20,6,20,N,MILD,NOT RECOVERED,DRUG WITHDRAWN,POSSIBLY RELATED,N,Y,,Respiratory disorders,195
VIRALBLOCK01,AE,VIRALBLOCK01-195,1,Cough,2023-01-06,2023-01-20,6,20,N,MILD,NOT RECOVERED,DRUG WITHDRAWN,POSSIBLY RELATED,UNKNOWN,Y,,Respiratory disorders,195
VIRALBLOCK01,AE,VIRALBLOCK01-195,1,Cough,2023-01-06,2023-01-20,6,20,N,MILD,NOT RECOVERED,DRUG WITHDRAWN,POSSIBLY RELATED,Y,Y,,Respiratory disorders,195
VIRALBLOCK01,AE,VIRALBLOCK01-196,1,Fever,2023-01-02,2023-01-29,2,29,N,MILD,RECOVERED,DOSE REDUCED,NOT RELATED,N,,,General disorders and administration site conditions,196
VIRALBLOCK01,AE,VIRALBLOCK01-196,1,Fever,2023-01-02,2023-01-29,2,29,N,MILD,RECOVERED,DOSE REDUCED,NOT RELATED,Y,,,General disorders and administration site conditions,196
VIRALBLOCK01,AE,VIRALBLOCK01-196,1,Fever,2023-01-02,2023-01-29,2,29,N,MILD,RECOVERED,DOSE REDUCED,NOT RELATED,UNKNOWN,,,General disorders and administration site conditions,196
VIRALBLOCK01,AE,VIRALBLOCK01-196,1,Rash,2023-01-06,2023-01-27,6,27,N,MODERATE,RECOVERING,NONE,NOT RELATED,Y,,,Skin and subcutaneous tissue disorders,196
VIRALBLOCK01,AE,VIRALBLOCK01-196,1,Rash,2023-01-06,2023-01-27,6,27,N,MODERATE,RECOVERING,NONE,NOT RELATED,N,,,Skin and subcutaneous tissue disorders,196
VIRALBLOCK01,AE,VIRALBLOCK01-196,1,Rash,2023-01-06,2023-01-27,6,27,N,MODERATE,RECOVERING,NONE,NOT RELATED,UNKNOWN,,,Skin and subcutaneous tissue disorders,196
VIRALBLOCK01,AE,VIRALBLOCK01-197,1,Cough,2023-01-13,2023-01-25,13,25,N,SEVERE,RECOVERED,DOSE REDUCED,RELATED,N,Y,,Respiratory disorders,197
VIRALBLOCK01,AE,VIRALBLOCK01-197,1,Cough,2023-01-13,2023-01-25,13,25,N,SEVERE,RECOVERED,DOSE REDUCED,RELATED,UNKNOWN,Y,,Respiratory disorders,197
VIRALBLOCK01,AE,VIRALBLOCK01-197,1,Cough,2023-01-13,2023-01-25,13,25,N,SEVERE,RECOVERED,DOSE REDUCED,RELATED,Y,Y,,Respiratory disorders,197
VIRALBLOCK01,AE,VIRALBLOCK01-197,1,Fatigue,2023-01-13,2023-01-29,13,29,N,MILD,RECOVERING,DOSE REDUCED,NOT RELATED,UNKNOWN,,,General disorders and administration site conditions,197
VIRALBLOCK01,AE,VIRALBLOCK01-197,1,Fatigue,2023-01-13,2023-01-29,13,29,N,MILD,RECOVERING,DOSE REDUCED,NOT RELATED,Y,,,General disorders and administration site conditions,197
VIRALBLOCK01,AE,VIRALBLOCK01-197,1,Fatigue,2023-01-13,2023-01-29,13,29,N,MILD,RECOVERING,DOSE REDUCED,NOT RELATED,N,,,General disorders and administration site conditions,197
VIRALBLOCK01,AE,VIRALBLOCK01-198,1,Nausea,2023-01-07,2023-01-30,7,30,N,SEVERE,NOT RECOVERED,NONE,POSSIBLY RELATED,UNKNOWN,,,Gastrointestinal disorders,198
VIRALBLOCK01,AE,VIRALBLOCK01-198,1,Nausea,2023-01-07,2023-01-30,7,30,N,SEVERE,NOT RECOVERED,NONE,POSSIBLY RELATED,N,,,Gastrointestinal disorders,198
VIRALBLOCK01,AE,VIRALBLOCK01-198,1,Nausea,2023-01-07,2023-01-30,7,30,N,SEVERE,NOT RECOVERED,NONE,POSSIBLY RELATED,Y,,,Gastrointestinal disorders,198
VIRALBLOCK01,AE,VIRALBLOCK01-198,1,Fever,2023-01-16,2023-01-26,16,26,N,MODERATE,RECOVERING,DRUG WITHDRAWN,POSSIBLY RELATED,Y,,,General disorders and administration site conditions,198
VIRALBLOCK01,AE,VIRALBLOCK01-198,1,Fever,2023-01-16,2023-01-26,16,26,N,MODERATE,RECOVERING,DRUG WITHDRAWN,POSSIBLY RELATED,UNKNOWN,,,General disorders and administration site conditions,198
VIRALBLOCK01,AE,VIRALBLOCK01-198,1,Fever,2023-01-16,2023-01-26,16,26,N,MODERATE,RECOVERING,DRUG WITHDRAWN,POSSIBLY RELATED,N,,,General disorders and administration site conditions,198
VIRALBLOCK01,AE,VIRALBLOCK01-199,1,Headache,2023-01-06,2023-01-26,6,26,N,MILD,RECOVERING,NONE,POSSIBLY RELATED,N,,,Nervous system disorders,199
VIRALBLOCK01,AE,VIRALBLOCK01-199,1,Headache,2023-01-06,2023-01-26,6,26,N,MILD,RECOVERING,NONE,POSSIBLY RELATED,Y,,,Nervous system disorders,199
VIRALBLOCK01,AE,VIRALBLOCK01-199,1,Headache,2023-01-06,2023-01-26,6,26,N,MILD,RECOVERING,NONE,POSSIBLY RELATED,UNKNOWN,,,Nervous system disorders,199
VIRALBLOCK01,AE,VIRALBLOCK01-199,1,Rash,2023-01-18,2023-02-01,18,32,N,MILD,NOT RECOVERED,NONE,POSSIBLY RELATED,UNKNOWN,Y,,Skin and subcutaneous tissue disorders,199
VIRALBLOCK01,AE,VIRALBLOCK01-199,1,Rash,2023-01-18,2023-02-01,18,32,N,MILD,NOT RECOVERED,NONE,POSSIBLY RELATED,Y,Y,,Skin and subcutaneous tissue disorders,199
VIRALBLOCK01,AE,VIRALBLOCK01-199,1,Rash,2023-01-18,2023-02-01,18,32,N,MILD,NOT RECOVERED,NONE,POSSIBLY RELATED,N,Y,,Skin and subcutaneous tissue disorders,199
VIRALBLOCK01,AE,VIRALBLOCK01-203,1,Fatigue,2023-01-15,2023-01-28,15,28,N,MODERATE,RECOVERED,DOSE REDUCED,RELATED,UNKNOWN,,,General disorders and administration site conditions,203
VIRALBLOCK01,AE,VIRALBLOCK01-203,1,Fatigue,2023-01-15,2023-01-28,15,28,N,MODERATE,RECOVERED,DOSE REDUCED,RELATED,N,,,General disorders and administration site conditions,203
VIRALBLOCK01,AE,VIRALBLOCK01-203,1,Fatigue,2023-01-15,2023-01-28,15,28,N,MODERATE,RECOVERED,DOSE REDUCED,RELATED,Y,,,General disorders and administration site conditions,203
VIRALBLOCK01,AE,VIRALBLOCK01-203,1,Fatigue,2023-01-18,2023-02-05,18,36,N,MILD,NOT RECOVERED,NONE,POSSIBLY RELATED,N,Y,,General disorders and administration site conditions,203
VIRALBLOCK01,AE,VIRALBLOCK01-203,1,Fatigue,2023-01-18,2023-02-05,18,36,N,MILD,NOT RECOVERED,NONE,POSSIBLY RELATED,UNKNOWN,Y,,General disorders and administration site conditions,203
VIRALBLOCK01,AE,VIRALBLOCK01-203,1,Fatigue,2023-01-18,2023-02-05,18,36,N,MILD,NOT RECOVERED,NONE,POSSIBLY RELATED,Y,Y,,General disorders and administration site conditions,203
VIRALBLOCK01,AE,VIRALBLOCK01-203,1,Fever,2023-01-18,2023-01-30,18,30,N,MILD,NOT RECOVERED,DRUG WITHDRAWN,POSSIBLY RELATED,Y,Y,,General disorders and administration site conditions,203
VIRALBLOCK01,AE,VIRALBLOCK01-203,1,Fever,2023-01-18,2023-01-30,18,30,N,MILD,NOT RECOVERED,DRUG WITHDRAWN,POSSIBLY RELATED,N,Y,,General disorders and administration site conditions,203
VIRALBLOCK01,AE,VIRALBLOCK01-203,1,Fever,2023-01-18,2023-01-30,18,30,N,MILD,NOT RECOVERED,DRUG WITHDRAWN,POSSIBLY RELATED,UNKNOWN,Y,,General disorders and administration site conditions,203
VIRALBLOCK01,AE,VIRALBLOCK01-205,1,Headache,2023-01-21,2023-01-28,21,28,N,SEVERE,RECOVERED,NONE,POSSIBLY RELATED,Y,,,Nervous system disorders,205
VIRALBLOCK01,AE,VIRALBLOCK01-205,1,Headache,2023-01-21,2023-01-28,21,28,N,SEVERE,RECOVERED,NONE,POSSIBLY RELATED,UNKNOWN,,,Nervous system disorders,205
VIRALBLOCK01,AE,VIRALBLOCK01-205,1,Headache,2023-01-21,2023-01-28,21,28,N,SEVERE,RECOVERED,NONE,POSSIBLY RELATED,N,,,Nervous system disorders,205
VIRALBLOCK01,AE,VIRALBLOCK01-207,1,Fever,2023-01-06,2023-01-28,6,28,N,MILD,RECOVERED,DRUG WITHDRAWN,POSSIBLY RELATED,Y,,,General disorders and administration site conditions,207
VIRALBLOCK01,AE,VIRALBLOCK01-207,1,Fever,2023-01-06,2023-01-28,6,28,N,MILD,RECOVERED,DRUG WITHDRAWN,POSSIBLY RELATED,N,,,General disorders and administration site conditions,207
VIRALBLOCK01,AE,VIRALBLOCK01-207,1,Fever,2023-01-06,2023-01-28,6,28,N,MILD,RECOVERED,DRUG WITHDRAWN,POSSIBLY RELATED,UNKNOWN,,,General disorders and administration site conditions,207
VIRALBLOCK01,AE,VIRALBLOCK01-207,1,Nausea,2023-01-13,2023-01-29,13,29,N,MODERATE,RECOVERED,DOSE REDUCED,RELATED,N,Y,,Gastrointestinal disorders,207
VIRALBLOCK01,AE,VIRALBLOCK01-207,1,Nausea,2023-01-13,2023-01-29,13,29,N,MODERATE,RECOVERED,DOSE REDUCED,RELATED,UNKNOWN,Y,,Gastrointestinal disorders,207
VIRALBLOCK01,AE,VIRALBLOCK01-207,1,Nausea,2023-01-13,2023-01-29,13,29,N,MODERATE,RECOVERED,DOSE REDUCED,RELATED,Y,Y,,Gastrointestinal disorders,207
VIRALBLOCK01,AE,VIRALBLOCK01-208,1,Cough,2023-01-01,2023-01-19,1,19,N,MODERATE,RECOVERING,NONE,RELATED,N,,,Respiratory disorders,208
VIRALBLOCK01,AE,VIRALBLOCK01-208,1,Cough,2023-01-01,2023-01-19,1,19,N,MODERATE,RECOVERING,NONE,RELATED,Y,,,Respiratory disorders,208
VIRALBLOCK01,AE,VIRALBLOCK01-208,1,Cough,2023-01-01,2023-01-19,1,19,N,MODERATE,RECOVERING,NONE,RELATED,UNKNOWN,,,Respiratory disorders,208
VIRALBLOCK01,AE,VIRALBLOCK01-208,1,Fever,2023-01-08,2023-01-27,8,27,N,MODERATE,RECOVERED,DRUG WITHDRAWN,NOT RELATED,N,Y,,General disorders and administration site conditions,208
VIRALBLOCK01,AE,VIRALBLOCK01-208,1,Fever,2023-01-08,2023-01-27,8,27,N,MODERATE,RECOVERED,DRUG WITHDRAWN,NOT RELATED,UNKNOWN,Y,,General disorders and administration site conditions,208
VIRALBLOCK01,AE,VIRALBLOCK01-208,1,Fever,2023-01-08,2023-01-27,8,27,N,MODERATE,RECOVERED,DRUG WITHDRAWN,NOT RELATED,Y,Y,,General disorders and administration site conditions,208
VIRALBLOCK01,AE,VIRALBLOCK01-209,1,Headache,2023-01-13,2023-01-27,13,27,N,MILD,RECOVERED,DRUG WITHDRAWN,POSSIBLY RELATED,Y,Y,,Nervous system disorders,209
VIRALBLOCK01,AE,VIRALBLOCK01-209,1,Headache,2023-01-13,2023-01-27,13,27,N,MILD,RECOVERED,DRUG WITHDRAWN,POSSIBLY RELATED,UNKNOWN,Y,,Nervous system disorders,209
VIRALBLOCK01,AE,VIRALBLOCK01-209,1,Headache,2023-01-13,2023-01-27,13,27,N,MILD,RECOVERED,DRUG WITHDRAWN,POSSIBLY RELATED,N,Y,,Nervous system disorders,209
VIRALBLOCK01,AE,VIRALBLOCK01-210,1,Headache,2023-01-20,2023-02-01,20,32,N,MILD,RECOVERING,NONE,POSSIBLY RELATED,Y,,,Nervous system disorders,210
VIRALBLOCK01,AE,VIRALBLOCK01-210,1,Headache,2023-01-20,2023-02-01,20,32,N,MILD,RECOVERING,NONE,POSSIBLY RELATED,N,,,Nervous system disorders,210
VIRALBLOCK01,AE,VIRALBLOCK01-210,1,Headache,2023-01-20,2023-02-01,20,32,N,MILD,RECOVERING,NONE,POSSIBLY RELATED,UNKNOWN,,,Nervous system disorders,210
VIRALBLOCK01,AE,VIRALBLOCK01-211,1,Fever,2023-01-10,2023-01-25,10,25,N,SEVERE,RECOVERED,DRUG WITHDRAWN,POSSIBLY RELATED,N,Y,,General disorders and administration site conditions,211
VIRALBLOCK01,AE,VIRALBLOCK01-211,1,Fever,2023-01-10,2023-01-25,10,25,N,SEVERE,RECOVERED,DRUG WITHDRAWN,POSSIBLY RELATED,Y,Y,,General disorders and administration site conditions,211
VIRALBLOCK01,AE,VIRALBLOCK01-211,1,Fever,2023-01-10,2023-01-25,10,25,N,SEVERE,RECOVERED,DRUG WITHDRAWN,POSSIBLY RELATED,UNKNOWN,Y,,General disorders and administration site conditions,211
VIRALBLOCK01,AE,VIRALBLOCK01-213,1,Fatigue,2023-01-14,2023-01-24,14,24,Y,MILD,RECOVERING,DOSE REDUCED,NOT RELATED,N,,,General disorders and administration site conditions,213
VIRALBLOCK01,AE,VIRALBLOCK01-213,1,Fatigue,2023-01-14,2023-01-24,14,24,Y,MILD,RECOVERING,DOSE REDUCED,NOT RELATED,Y,,,General disorders and administration site conditions,213
VIRALBLOCK01,AE,VIRALBLOCK01-213,1,Fatigue,2023-01-14,2023-01-24,14,24,Y,MILD,RECOVERING,DOSE REDUCED,NOT RELATED,UNKNOWN,,,General disorders and administration site conditions,213
VIRALBLOCK01,AE,VIRALBLOCK01-213,1,Fever,2023-01-21,2023-02-02,21,33,N,SEVERE,RECOVERED,NONE,POSSIBLY RELATED,N,Y,,General disorders and administration site conditions,213
VIRALBLOCK01,AE,VIRALBLOCK01-213,1,Fever,2023-01-21,2023-02-02,21,33,N,SEVERE,RECOVERED,NONE,POSSIBLY RELATED,UNKNOWN,Y,,General disorders and administration site conditions,213
VIRALBLOCK01,AE,VIRALBLOCK01-213,1,Fever,2023-01-21,2023-02-02,21,33,N,SEVERE,RECOVERED,NONE,POSSIBLY RELATED,Y,Y,,General disorders and administration site conditions,213
VIRALBLOCK01,AE,VIRALBLOCK01-214,1,Fever,2023-01-04,2023-01-21,4,21,N,MODERATE,RECOVERED,DOSE REDUCED,POSSIBLY RELATED,N,Y,,General disorders and administration site conditions,214
VIRALBLOCK01,AE,VIRALBLOCK01-214,1,Fever,2023-01-04,2023-01-21,4,21,N,MODERATE,RECOVERED,DOSE REDUCED,POSSIBLY RELATED,UNKNOWN,Y,,General disorders and administration site conditions,214
VIRALBLOCK01,AE,VIRALBLOCK01-214,1,Fever,2023-01-04,2023-01-21,4,21,N,MODERATE,RECOVERED,DOSE REDUCED,POSSIBLY RELATED,Y,Y,,General disorders and administration site conditions,214
VIRALBLOCK01,AE,VIRALBLOCK01-214,1,Fatigue,2023-01-07,2023-01-24,7,24,Y,MILD,RECOVERING,NONE,POSSIBLY RELATED,Y,,,General disorders and administration site conditions,214
VIRALBLOCK01,AE,VIRALBLOCK01-214,1,Fatigue,2023-01-07,2023-01-24,7,24,Y,MILD,RECOVERING,NONE,POSSIBLY RELATED,UNKNOWN,,,General disorders and administration site conditions,214
VIRALBLOCK01,AE,VIRALBLOCK01-214,1,Fatigue,2023-01-07,2023-01-24,7,24,Y,MILD,RECOVERING,NONE,POSSIBLY RELATED,N,,,General disorders and administration site conditions,214
VIRALBLOCK01,AE,VIRALBLOCK01-214,1,Cough,2023-01-12,2023-01-29,12,29,N,MODERATE,RECOVERING,DRUG WITHDRAWN,NOT RELATED,UNKNOWN,,,Respiratory disorders,214
VIRALBLOCK01,AE,VIRALBLOCK01-214,1,Cough,2023-01-12,2023-01-29,12,29,N,MODERATE,RECOVERING,DRUG WITHDRAWN,NOT RELATED,Y,,,Respiratory disorders,214
VIRALBLOCK01,AE,VIRALBLOCK01-214,1,Cough,2023-01-12,2023-01-29,12,29,N,MODERATE,RECOVERING,DRUG WITHDRAWN,NOT RELATED,N,,,Respiratory disorders,214
VIRALBLOCK01,AE,VIRALBLOCK01-215,1,Fatigue,2023-01-01,2023-01-20,1,20,N,MILD,RECOVERING,DOSE REDUCED,POSSIBLY RELATED,UNKNOWN,Y,,General disorders and administration site conditions,215
VIRALBLOCK01,AE,VIRALBLOCK01-215,1,Fatigue,2023-01-01,2023-01-20,1,20,N,MILD,RECOVERING,DOSE REDUCED,POSSIBLY RELATED,N,Y,,General disorders and administration site conditions,215
VIRALBLOCK01,AE,VIRALBLOCK01-215,1,Fatigue,2023-01-01,2023-01-20,1,20,N,MILD,RECOVERING,DOSE REDUCED,POSSIBLY RELATED,Y,Y,,General disorders and administration site conditions,215
VIRALBLOCK01,AE,VIRALBLOCK01-215,1,Nausea,2023-01-01,2023-01-29,1,29,N,MILD,RECOVERING,DOSE REDUCED,NOT RELATED,Y,,,Gastrointestinal disorders,215
VIRALBLOCK01,AE,VIRALBLOCK01-215,1,Nausea,2023-01-01,2023-01-29,1,29,N,MILD,RECOVERING,DOSE REDUCED,NOT RELATED,N,,,Gastrointestinal disorders,215
VIRALBLOCK01,AE,VIRALBLOCK01-215,1,Nausea,2023-01-01,2023-01-29,1,29,N,MILD,RECOVERING,DOSE REDUCED,NOT RELATED,UNKNOWN,,,Gastrointestinal disorders,215
VIRALBLOCK01,AE,VIRALBLOCK01-215,1,Fatigue,2023-01-13,2023-01-27,13,27,N,SEVERE,NOT RECOVERED,NONE,NOT RELATED,Y,Y,,General disorders and administration site conditions,215
VIRALBLOCK01,AE,VIRALBLOCK01-215,1,Fatigue,2023-01-13,2023-01-27,13,27,N,SEVERE,NOT RECOVERED,NONE,NOT RELATED,N,Y,,General disorders and administration site conditions,215
VIRALBLOCK01,AE,VIRALBLOCK01-215,1,Fatigue,2023-01-13,2023-01-27,13,27,N,SEVERE,NOT RECOVERED,NONE,NOT RELATED,UNKNOWN,Y,,General disorders and administration site conditions,215
VIRALBLOCK01,AE,VIRALBLOCK01-216,1,Cough,2023-01-21,2023-02-04,21,35,N,MILD,RECOVERED,DOSE REDUCED,RELATED,Y,Y,,Respiratory disorders,216
VIRALBLOCK01,AE,VIRALBLOCK01-216,1,Cough,2023-01-21,2023-02-04,21,35,N,MILD,RECOVERED,DOSE REDUCED,RELATED,UNKNOWN,Y,,Respiratory disorders,216
VIRALBLOCK01,AE,VIRALBLOCK01-216,1,Cough,2023-01-21,2023-02-04,21,35,N,MILD,RECOVERED,DOSE REDUCED,RELATED,N,Y,,Respiratory disorders,216
VIRALBLOCK01,AE,VIRALBLOCK01-216,1,Cough,2023-01-22,2023-02-02,22,33,N,MILD,RECOVERED,NONE,POSSIBLY RELATED,N,Y,,Respiratory disorders,216
VIRALBLOCK01,AE,VIRALBLOCK01-216,1,Cough,2023-01-22,2023-02-02,22,33,N,MILD,RECOVERED,NONE,POSSIBLY RELATED,UNKNOWN,Y,,Respiratory disorders,216
VIRALBLOCK01,AE,VIRALBLOCK01-216,1,Cough,2023-01-22,2023-02-02,22,33,N,MILD,RECOVERED,NONE,POSSIBLY RELATED,Y,Y,,Respiratory disorders,216
VIRALBLOCK01,AE,VIRALBLOCK01-218,1,Rash,2023-01-14,2023-01-25,14,25,N,MILD,RECOVERED,DOSE REDUCED,NOT RELATED,UNKNOWN,Y,,Skin and subcutaneous tissue disorders,218
VIRALBLOCK01,AE,VIRALBLOCK01-218,1,Rash,2023-01-14,2023-01-25,14,25,N,MILD,RECOVERED,DOSE REDUCED,NOT RELATED,Y,Y,,Skin and subcutaneous tissue disorders,218
VIRALBLOCK01,AE,VIRALBLOCK01-218,1,Rash,2023-01-14,2023-01-25,14,25,N,MILD,RECOVERED,DOSE REDUCED,NOT RELATED,N,Y,,Skin and subcutaneous tissue disorders,218
VIRALBLOCK01,AE,VIRALBLOCK01-219,1,Fever,2023-01-18,2023-02-01,18,32,Y,MODERATE,RECOVERED,DRUG WITHDRAWN,POSSIBLY RELATED,N,Y,,General disorders and administration site conditions,219
VIRALBLOCK01,AE,VIRALBLOCK01-219,1,Fever,2023-01-18,2023-02-01,18,32,Y,MODERATE,RECOVERED,DRUG WITHDRAWN,POSSIBLY RELATED,Y,Y,,General disorders and administration site conditions,219
VIRALBLOCK01,AE,VIRALBLOCK01-219,1,Fever,2023-01-18,2023-02-01,18,32,Y,MODERATE,RECOVERED,DRUG WITHDRAWN,POSSIBLY RELATED,UNKNOWN,Y,,General disorders and administration site conditions,219
VIRALBLOCK01,AE,VIRALBLOCK01-220,1,Headache,2023-01-14,2023-01-28,14,28,N,SEVERE,RECOVERED,NONE,RELATED,Y,,,Nervous system disorders,220
VIRALBLOCK01,AE,VIRALBLOCK01-220,1,Headache,2023-01-14,2023-01-28,14,28,N,SEVERE,RECOVERED,NONE,RELATED,N,,,Nervous system disorders,220
VIRALBLOCK01,AE,VIRALBLOCK01-220,1,Headache,2023-01-14,2023-01-28,14,28,N,SEVERE,RECOVERED,NONE,RELATED,UNKNOWN,,,Nervous system disorders,220
VIRALBLOCK01,AE,VIRALBLOCK01-221,1,Cough,2023-01-06,2023-01-24,6,24,N,MODERATE,RECOVERING,DRUG WITHDRAWN,NOT RELATED,Y,Y,,Respiratory disorders,221
VIRALBLOCK01,AE,VIRALBLOCK01-221,1,Cough,2023-01-06,2023-01-24,6,24,N,MODERATE,RECOVERING,DRUG WITHDRAWN,NOT RELATED,N,Y,,Respiratory disorders,221
VIRALBLOCK01,AE,VIRALBLOCK01-221,1,Cough,2023-01-06,2023-01-24,6,24,N,MODERATE,RECOVERING,DRUG WITHDRAWN,NOT RELATED,UNKNOWN,Y,,Respiratory disorders,221
VIRALBLOCK01,AE,VIRALBLOCK01-221,1,Rash,2023-01-13,2023-01-29,13,29,N,MILD,RECOVERING,NONE,NOT RELATED,N,,,Skin and subcutaneous tissue disorders,221
VIRALBLOCK01,AE,VIRALBLOCK01-221,1,Rash,2023-01-13,2023-01-29,13,29,N,MILD,RECOVERING,NONE,NOT RELATED,UNKNOWN,,,Skin and subcutaneous tissue disorders,221
VIRALBLOCK01,AE,VIRALBLOCK01-221,1,Rash,2023-01-13,2023-01-29,13,29,N,MILD,RECOVERING,NONE,NOT RELATED,Y,,,Skin and subcutaneous tissue disorders,221
VIRALBLOCK01,AE,VIRALBLOCK01-221,1,Cough,2023-01-17,2023-01-27,17,27,N,MILD,RECOVERING,DOSE REDUCED,NOT RELATED,UNKNOWN,,,Respiratory disorders,221
VIRALBLOCK01,AE,VIRALBLOCK01-221,1,Cough,2023-01-17,2023-01-27,17,27,N,MILD,RECOVERING,DOSE REDUCED,NOT RELATED,Y,,,Respiratory disorders,221
VIRALBLOCK01,AE,VIRALBLOCK01-221,1,Cough,2023-01-17,2023-01-27,17,27,N,MILD,RECOVERING,DOSE REDUCED,NOT RELATED,N,,,Respiratory disorders,221
VIRALBLOCK01,AE,VIRALBLOCK01-222,1,Fatigue,2023-01-08,2023-01-29,8,29,Y,MILD,RECOVERED,NONE,POSSIBLY RELATED,N,Y,,General disorders and administration site conditions,222
VIRALBLOCK01,AE,VIRALBLOCK01-222,1,Fatigue,2023-01-08,2023-01-29,8,29,Y,MILD,RECOVERED,NONE,POSSIBLY RELATED,Y,Y,,General disorders and administration site conditions,222
VIRALBLOCK01,AE,VIRALBLOCK01-222,1,Fatigue,2023-01-08,2023-01-29,8,29,Y,MILD,RECOVERED,NONE,POSSIBLY RELATED,UNKNOWN,Y,,General disorders and administration site conditions,222
VIRALBLOCK01,AE,VIRALBLOCK01-222,1,Cough,2023-01-15,2023-01-16,15,16,N,MODERATE,RECOVERING,DOSE REDUCED,POSSIBLY RELATED,Y,,,Respiratory disorders,222
VIRALBLOCK01,AE,VIRALBLOCK01-222,1,Cough,2023-01-15,2023-01-16,15,16,N,MODERATE,RECOVERING,DOSE REDUCED,POSSIBLY RELATED,N,,,Respiratory disorders,222
VIRALBLOCK01,AE,VIRALBLOCK01-222,1,Cough,2023-01-15,2023-01-16,15,16,N,MODERATE,RECOVERING,DOSE REDUCED,POSSIBLY RELATED,UNKNOWN,,,Respiratory disorders,222
VIRALBLOCK01,AE,VIRALBLOCK01-223,1,Nausea,2023-01-03,2023-01-19,3,19,N,MODERATE,RECOVERING,NONE,RELATED,UNKNOWN,,,Gastrointestinal disorders,223
VIRALBLOCK01,AE,VIRALBLOCK01-223,1,Nausea,2023-01-03,2023-01-19,3,19,N,MODERATE,RECOVERING,NONE,RELATED,N,,,Gastrointestinal disorders,223
VIRALBLOCK01,AE,VIRALBLOCK01-223,1,Nausea,2023-01-03,2023-01-19,3,19,N,MODERATE,RECOVERING,NONE,RELATED,Y,,,Gastrointestinal disorders,223
VIRALBLOCK01,AE,VIRALBLOCK01-224,1,Rash,2023-01-11,2023-01-28,11,28,N,MODERATE,RECOVERED,DOSE REDUCED,NOT RELATED,Y,Y,,Skin and subcutaneous tissue disorders,224
VIRALBLOCK01,AE,VIRALBLOCK01-224,1,Rash,2023-01-11,2023-01-28,11,28,N,MODERATE,RECOVERED,DOSE REDUCED,NOT RELATED,UNKNOWN,Y,,Skin and subcutaneous tissue disorders,224
VIRALBLOCK01,AE,VIRALBLOCK01-224,1,Rash,2023-01-11,2023-01-28,11,28,N,MODERATE,RECOVERED,DOSE REDUCED,NOT RELATED,N,Y,,Skin and subcutaneous tissue disorders,224
VIRALBLOCK01,AE,VIRALBLOCK01-224,1,Nausea,2023-01-13,2023-01-30,13,30,N,SEVERE,RECOVERED,NONE,POSSIBLY RELATED,Y,,,Gastrointestinal disorders,224
VIRALBLOCK01,AE,VIRALBLOCK01-224,1,Nausea,2023-01-13,2023-01-30,13,30,N,SEVERE,RECOVERED,NONE,POSSIBLY RELATED,UNKNOWN,,,Gastrointestinal disorders,224
VIRALBLOCK01,AE,VIRALBLOCK01-224,1,Nausea,2023-01-13,2023-01-30,13,30,N,SEVERE,RECOVERED,NONE,POSSIBLY RELATED,N,,,Gastrointestinal disorders,224
VIRALBLOCK01,AE,VIRALBLOCK01-225,1,Rash,2023-01-15,2023-02-03,15,34,N,SEVERE,RECOVERED,DOSE REDUCED,NOT RELATED,UNKNOWN,Y,,Skin and subcutaneous tissue disorders,225
VIRALBLOCK01,AE,VIRALBLOCK01-225,1,Rash,2023-01-15,2023-02-03,15,34,N,SEVERE,RECOVERED,DOSE REDUCED,NOT RELATED,Y,Y,,Skin and subcutaneous tissue disorders,225
VIRALBLOCK01,AE,VIRALBLOCK01-225,1,Rash,2023-01-15,2023-02-03,15,34,N,SEVERE,RECOVERED,DOSE REDUCED,NOT RELATED,N,Y,,Skin and subcutaneous tissue disorders,225
VIRALBLOCK01,AE,VIRALBLOCK01-226,1,Cough,2023-01-07,2023-01-30,7,30,N,MILD,RECOVERED,DOSE REDUCED,POSSIBLY RELATED,Y,Y,,Respiratory disorders,226
VIRALBLOCK01,AE,VIRALBLOCK01-226,1,Cough,2023-01-07,2023-01-30,7,30,N,MILD,RECOVERED,DOSE REDUCED,POSSIBLY RELATED,UNKNOWN,Y,,Respiratory disorders,226
VIRALBLOCK01,AE,VIRALBLOCK01-226,1,Cough,2023-01-07,2023-01-30,7,30,N,MILD,RECOVERED,DOSE REDUCED,POSSIBLY RELATED,N,Y,,Respiratory disorders,226
VIRALBLOCK01,AE,VIRALBLOCK01-226,1,Fever,2023-01-17,2023-01-22,17,22,N,MILD,NOT RECOVERED,DOSE REDUCED,POSSIBLY RELATED,UNKNOWN,,,General disorders and administration site conditions,226
VIRALBLOCK01,AE,VIRALBLOCK01-226,1,Fever,2023-01-17,2023-01-22,17,22,N,MILD,NOT RECOVERED,DOSE REDUCED,POSSIBLY RELATED,N,,,General disorders and administration site conditions,226
VIRALBLOCK01,AE,VIRALBLOCK01-226,1,Fever,2023-01-17,2023-01-22,17,22,N,MILD,NOT RECOVERED,DOSE REDUCED,POSSIBLY RELATED,Y,,,General disorders and administration site conditions,226
VIRALBLOCK01,AE,VIRALBLOCK01-228,1,Fatigue,2023-01-02,2023-01-21,2,21,N,MODERATE,RECOVERED,NONE,RELATED,N,Y,,General disorders and administration site conditions,228
VIRALBLOCK01,AE,VIRALBLOCK01-228,1,Fatigue,2023-01-02,2023-01-21,2,21,N,MODERATE,RECOVERED,NONE,RELATED,Y,Y,,General disorders and administration site conditions,228
VIRALBLOCK01,AE,VIRALBLOCK01-228,1,Fatigue,2023-01-02,2023-01-21,2,21,N,MODERATE,RECOVERED,NONE,RELATED,UNKNOWN,Y,,General disorders and administration site conditions,228
VIRALBLOCK01,AE,VIRALBLOCK01-229,1,Nausea,2023-01-20,2023-02-06,20,37,N,MILD,RECOVERED,NONE,RELATED,UNKNOWN,,,Gastrointestinal disorders,229
VIRALBLOCK01,AE,VIRALBLOCK01-229,1,Nausea,2023-01-20,2023-02-06,20,37,N,MILD,RECOVERED,NONE,RELATED,N,,,Gastrointestinal disorders,229
VIRALBLOCK01,AE,VIRALBLOCK01-229,1,Nausea,2023-01-20,2023-02-06,20,37,N,MILD,RECOVERED,NONE,RELATED,Y,,,Gastrointestinal disorders,229
VIRALBLOCK01,AE,VIRALBLOCK01-230,1,Headache,2023-01-09,2023-01-23,9,23,N,MILD,RECOVERED,DOSE REDUCED,RELATED,N,,,Nervous system disorders,230
VIRALBLOCK01,AE,VIRALBLOCK01-230,1,Headache,2023-01-09,2023-01-23,9,23,N,MILD,RECOVERED,DOSE REDUCED,RELATED,UNKNOWN,,,Nervous system disorders,230
VIRALBLOCK01,AE,VIRALBLOCK01-230,1,Headache,2023-01-09,2023-01-23,9,23,N,MILD,RECOVERED,DOSE REDUCED,RELATED,Y,,,Nervous system disorders,230
VIRALBLOCK01,AE,VIRALBLOCK01-230,1,Nausea,2023-01-10,2023-01-22,10,22,N,SEVERE,RECOVERING,NONE,RELATED,Y,,,Gastrointestinal disorders,230
VIRALBLOCK01,AE,VIRALBLOCK01-230,1,Nausea,2023-01-10,2023-01-22,10,22,N,SEVERE,RECOVERING,NONE,RELATED,UNKNOWN,,,Gastrointestinal disorders,230
VIRALBLOCK01,AE,VIRALBLOCK01-230,1,Nausea,2023-01-10,2023-01-22,10,22,N,SEVERE,RECOVERING,NONE,RELATED,N,,,Gastrointestinal disorders,230
VIRALBLOCK01,AE,VIRALBLOCK01-231,1,Fever,2023-01-15,2023-01-19,15,19,N,MODERATE,RECOVERED,NONE,NOT RELATED,Y,Y,,General disorders and administration site conditions,231
VIRALBLOCK01,AE,VIRALBLOCK01-231,1,Fever,2023-01-15,2023-01-19,15,19,N,MODERATE,RECOVERED,NONE,NOT RELATED,UNKNOWN,Y,,General disorders and administration site conditions,231
VIRALBLOCK01,AE,VIRALBLOCK01-231,1,Fever,2023-01-15,2023-01-19,15,19,N,MODERATE,RECOVERED,NONE,NOT RELATED,N,Y,,General disorders and administration site conditions,231
VIRALBLOCK01,AE,VIRALBLOCK01-232,1,Fever,2023-01-20,2023-02-02,20,33,N,SEVERE,NOT RECOVERED,DRUG WITHDRAWN,RELATED,Y,,,General disorders and administration site conditions,232
VIRALBLOCK01,AE,VIRALBLOCK01-232,1,Fever,2023-01-20,2023-02-02,20,33,N,SEVERE,NOT RECOVERED,DRUG WITHDRAWN,RELATED,UNKNOWN,,,General disorders and administration site conditions,232
VIRALBLOCK01,AE,VIRALBLOCK01-232,1,Fever,2023-01-20,2023-02-02,20,33,N,SEVERE,NOT RECOVERED,DRUG WITHDRAWN,RELATED,N,,,General disorders and administration site conditions,232
VIRALBLOCK01,AE,VIRALBLOCK01-235,1,Headache,2023-01-20,2023-01-31,20,31,N,MODERATE,RECOVERED,DOSE REDUCED,NOT RELATED,UNKNOWN,Y,,Nervous system disorders,235
VIRALBLOCK01,AE,VIRALBLOCK01-235,1,Headache,2023-01-20,2023-01-31,20,31,N,MODERATE,RECOVERED,DOSE REDUCED,NOT RELATED,N,Y,,Nervous system disorders,235
VIRALBLOCK01,AE,VIRALBLOCK01-235,1,Headache,2023-01-20,2023-01-31,20,31,N,MODERATE,RECOVERED,DOSE REDUCED,NOT RELATED,Y,Y,,Nervous system disorders,235
VIRALBLOCK01,AE,VIRALBLOCK01-236,1,Headache,2023-01-09,2023-01-31,9,31,N,SEVERE,NOT RECOVERED,NONE,NOT RELATED,N,,,Nervous system disorders,236
VIRALBLOCK01,AE,VIRALBLOCK01-236,1,Headache,2023-01-09,2023-01-31,9,31,N,SEVERE,NOT RECOVERED,NONE,NOT RELATED,Y,,,Nervous system disorders,236
VIRALBLOCK01,AE,VIRALBLOCK01-236,1,Headache,2023-01-09,2023-01-31,9,31,N,SEVERE,NOT RECOVERED,NONE,NOT RELATED,UNKNOWN,,,Nervous system disorders,236
VIRALBLOCK01,AE,VIRALBLOCK01-239,1,Cough,2023-01-05,2023-01-25,5,25,N,MODERATE,RECOVERED,NONE,POSSIBLY RELATED,Y,,,Respiratory disorders,239
VIRALBLOCK01,AE,VIRALBLOCK01-239,1,Cough,2023-01-05,2023-01-25,5,25,N,MODERATE,RECOVERED,NONE,POSSIBLY RELATED,UNKNOWN,,,Respiratory disorders,239
VIRALBLOCK01,AE,VIRALBLOCK01-239,1,Cough,2023-01-05,2023-01-25,5,25,N,MODERATE,RECOVERED,NONE,POSSIBLY RELATED,N,,,Respiratory disorders,239
VIRALBLOCK01,AE,VIRALBLOCK01-239,1,Cough,2023-01-16,2023-01-31,16,31,N,MODERATE,RECOVERED,DOSE REDUCED,NOT RELATED,N,Y,,Respiratory disorders,239
VIRALBLOCK01,AE,VIRALBLOCK01-239,1,Cough,2023-01-16,2023-01-31,16,31,N,MODERATE,RECOVERED,DOSE REDUCED,NOT RELATED,UNKNOWN,Y,,Respiratory disorders,239
VIRALBLOCK01,AE,VIRALBLOCK01-239,1,Cough,2023-01-16,2023-01-31,16,31,N,MODERATE,RECOVERED,DOSE REDUCED,NOT RELATED,Y,Y,,Respiratory disorders,239
VIRALBLOCK01,AE,VIRALBLOCK01-241,1,Fever,2023-01-08,2023-01-26,8,26,N,MODERATE,RECOVERED,DRUG WITHDRAWN,POSSIBLY RELATED,N,,,General disorders and administration site conditions,241
VIRALBLOCK01,AE,VIRALBLOCK01-241,1,Fever,2023-01-08,2023-01-26,8,26,N,MODERATE,RECOVERED,DRUG WITHDRAWN,POSSIBLY RELATED,Y,,,General disorders and administration site conditions,241
VIRALBLOCK01,AE,VIRALBLOCK01-241,1,Fever,2023-01-08,2023-01-26,8,26,N,MODERATE,RECOVERED,DRUG WITHDRAWN,POSSIBLY RELATED,UNKNOWN,,,General disorders and administration site conditions,241
VIRALBLOCK01,AE,VIRALBLOCK01-242,1,Headache,2023-01-09,2023-01-20,9,20,N,MILD,NOT RECOVERED,NONE,POSSIBLY RELATED,N,,,Nervous system disorders,242
VIRALBLOCK01,AE,VIRALBLOCK01-242,1,Headache,2023-01-09,2023-01-20,9,20,N,MILD,NOT RECOVERED,NONE,POSSIBLY RELATED,UNKNOWN,,,Nervous system disorders,242
VIRALBLOCK01,AE,VIRALBLOCK01-242,1,Headache,2023-01-09,2023-01-20,9,20,N,MILD,NOT RECOVERED,NONE,POSSIBLY RELATED,Y,,,Nervous system disorders,242
VIRALBLOCK01,AE,VIRALBLOCK01-245,1,Rash,2023-01-11,2023-01-22,11,22,N,MILD,RECOVERING,NONE,POSSIBLY RELATED,UNKNOWN,Y,,Skin and subcutaneous tissue disorders,245
VIRALBLOCK01,AE,VIRALBLOCK01-245,1,Rash,2023-01-11,2023-01-22,11,22,N,MILD,RECOVERING,NONE,POSSIBLY RELATED,Y,Y,,Skin and subcutaneous tissue disorders,245
VIRALBLOCK01,AE,VIRALBLOCK01-245,1,Rash,2023-01-11,2023-01-22,11,22,N,MILD,RECOVERING,NONE,POSSIBLY RELATED,N,Y,,Skin and subcutaneous tissue disorders,245
VIRALBLOCK01,AE,VIRALBLOCK01-247,1,Cough,2023-01-06,2023-01-23,6,23,N,MILD,NOT RECOVERED,DOSE REDUCED,POSSIBLY RELATED,UNKNOWN,,,Respiratory disorders,247
VIRALBLOCK01,AE,VIRALBLOCK01-247,1,Cough,2023-01-06,2023-01-23,6,23,N,MILD,NOT RECOVERED,DOSE REDUCED,POSSIBLY RELATED,N,,,Respiratory disorders,247
VIRALBLOCK01,AE,VIRALBLOCK01-247,1,Cough,2023-01-06,2023-01-23,6,23,N,MILD,NOT RECOVERED,DOSE REDUCED,POSSIBLY RELATED,Y,,,Respiratory disorders,247
VIRALBLOCK01,AE,VIRALBLOCK01-247,1,Headache,2023-01-12,2023-01-28,12,28,N,MODERATE,RECOVERED,NONE,NOT RELATED,UNKNOWN,Y,,Nervous system disorders,247
VIRALBLOCK01,AE,VIRALBLOCK01-247,1,Headache,2023-01-12,2023-01-28,12,28,N,MODERATE,RECOVERED,NONE,NOT RELATED,Y,Y,,Nervous system disorders,247
VIRALBLOCK01,AE,VIRALBLOCK01-247,1,Headache,2023-01-12,2023-01-28,12,28,N,MODERATE,RECOVERED,NONE,NOT RELATED,N,Y,,Nervous system disorders,247
VIRALBLOCK01,AE,VIRALBLOCK01-247,1,Fatigue,2023-01-15,2023-01-30,15,30,N,MILD,RECOVERED,DOSE REDUCED,NOT RELATED,N,,,General disorders and administration site conditions,247
VIRALBLOCK01,AE,VIRALBLOCK01-247,1,Fatigue,2023-01-15,2023-01-30,15,30,N,MILD,RECOVERED,DOSE REDUCED,NOT RELATED,UNKNOWN,,,General disorders and administration site conditions,247
VIRALBLOCK01,AE,VIRALBLOCK01-247,1,Fatigue,2023-01-15,2023-01-30,15,30,N,MILD,RECOVERED,DOSE REDUCED,NOT RELATED,Y,,,General disorders and administration site conditions,247
VIRALBLOCK01,AE,VIRALBLOCK01-250,1,Cough,2023-01-13,2023-02-06,13,37,N,MILD,RECOVERED,NONE,RELATED,N,Y,,Respiratory disorders,250
VIRALBLOCK01,AE,VIRALBLOCK01-250,1,Cough,2023-01-13,2023-02-06,13,37,N,MILD,RECOVERED,NONE,RELATED,UNKNOWN,Y,,Respiratory disorders,250
VIRALBLOCK01,AE,VIRALBLOCK01-250,1,Cough,2023-01-13,2023-02-06,13,37,N,MILD,RECOVERED,NONE,RELATED,Y,Y,,Respiratory disorders,250
VIRALBLOCK01,AE,VIRALBLOCK01-250,1,Rash,2023-01-19,2023-02-06,19,37,N,MILD,RECOVERED,DRUG WITHDRAWN,NOT RELATED,Y,Y,,Skin and subcutaneous tissue disorders,250
VIRALBLOCK01,AE,VIRALBLOCK01-250,1,Rash,2023-01-19,2023-02-06,19,37,N,MILD,RECOVERED,DRUG WITHDRAWN,NOT RELATED,UNKNOWN,Y,,Skin and subcutaneous tissue disorders,250
VIRALBLOCK01,AE,VIRALBLOCK01-250,1,Rash,2023-01-19,2023-02-06,19,37,N,MILD,RECOVERED,DRUG WITHDRAWN,NOT RELATED,N,Y,,Skin and subcutaneous tissue disorders,250
VIRALBLOCK01,AE,VIRALBLOCK01-251,1,Headache,2023-01-24,2023-02-06,24,37,N,MODERATE,RECOVERING,NONE,NOT RELATED,Y,,,Nervous system disorders,251
VIRALBLOCK01,AE,VIRALBLOCK01-251,1,Headache,2023-01-24,2023-02-06,24,37,N,MODERATE,RECOVERING,NONE,NOT RELATED,UNKNOWN,,,Nervous system disorders,251
VIRALBLOCK01,AE,VIRALBLOCK01-251,1,Headache,2023-01-24,2023-02-06,24,37,N,MODERATE,RECOVERING,NONE,NOT RELATED,N,,,Nervous system disorders,251
VIRALBLOCK01,AE,VIRALBLOCK01-254,1,Fever,2023-01-10,2023-01-25,10,25,N,SEVERE,NOT RECOVERED,NONE,POSSIBLY RELATED,N,Y,,General disorders and administration site conditions,254
VIRALBLOCK01,AE,VIRALBLOCK01-254,1,Fever,2023-01-10,2023-01-25,10,25,N,SEVERE,NOT RECOVERED,NONE,POSSIBLY RELATED,Y,Y,,General disorders and administration site conditions,254
VIRALBLOCK01,AE,VIRALBLOCK01-254,1,Fever,2023-01-10,2023-01-25,10,25,N,SEVERE,NOT RECOVERED,NONE,POSSIBLY RELATED,UNKNOWN,Y,,General disorders and administration site conditions,254
VIRALBLOCK01,AE,VIRALBLOCK01-255,1,Fatigue,2023-01-14,2023-01-24,14,24,Y,MILD,RECOVERED,NONE,POSSIBLY RELATED,N,Y,,General disorders and administration site conditions,255
VIRALBLOCK01,AE,VIRALBLOCK01-255,1,Fatigue,2023-01-14,2023-01-24,14,24,Y,MILD,RECOVERED,NONE,POSSIBLY RELATED,Y,Y,,General disorders and administration site conditions,255
VIRALBLOCK01,AE,VIRALBLOCK01-255,1,Fatigue,2023-01-14,2023-01-24,14,24,Y,MILD,RECOVERED,NONE,POSSIBLY RELATED,UNKNOWN,Y,,General disorders and administration site conditions,255
VIRALBLOCK01,AE,VIRALBLOCK01-255,1,Nausea,2023-01-19,2023-02-05,19,36,N,MILD,RECOVERED,DOSE REDUCED,POSSIBLY RELATED,UNKNOWN,,,Gastrointestinal disorders,255
VIRALBLOCK01,AE,VIRALBLOCK01-255,1,Nausea,2023-01-19,2023-02-05,19,36,N,MILD,RECOVERED,DOSE REDUCED,POSSIBLY RELATED,Y,,,Gastrointestinal disorders,255
VIRALBLOCK01,AE,VIRALBLOCK01-255,1,Nausea,2023-01-19,2023-02-05,19,36,N,MILD,RECOVERED,DOSE REDUCED,POSSIBLY RELATED,N,,,Gastrointestinal disorders,255
VIRALBLOCK01,AE,VIRALBLOCK01-257,1,Fatigue,2023-01-14,2023-01-30,14,30,N,MILD,RECOVERING,NONE,POSSIBLY RELATED,Y,Y,,General disorders and administration site conditions,257
VIRALBLOCK01,AE,VIRALBLOCK01-257,1,Fatigue,2023-01-14,2023-01-30,14,30,N,MILD,RECOVERING,NONE,POSSIBLY RELATED,UNKNOWN,Y,,General disorders and administration site conditions,257
VIRALBLOCK01,AE,VIRALBLOCK01-257,1,Fatigue,2023-01-14,2023-01-30,14,30,N,MILD,RECOVERING,NONE,POSSIBLY RELATED,N,Y,,General disorders and administration site conditions,257
VIRALBLOCK01,AE,VIRALBLOCK01-258,1,Nausea,2023-01-08,2023-02-01,8,32,N,SEVERE,RECOVERED,NONE,POSSIBLY RELATED,N,Y,,Gastrointestinal disorders,258
VIRALBLOCK01,AE,VIRALBLOCK01-258,1,Nausea,2023-01-08,2023-02-01,8,32,N,SEVERE,RECOVERED,NONE,POSSIBLY RELATED,Y,Y,,Gastrointestinal disorders,258
VIRALBLOCK01,AE,VIRALBLOCK01-258,1,Nausea,2023-01-08,2023-02-01,8,32,N,SEVERE,RECOVERED,NONE,POSSIBLY RELATED,UNKNOWN,Y,,Gastrointestinal disorders,258
VIRALBLOCK01,AE,VIRALBLOCK01-258,1,Cough,2023-01-13,2023-01-31,13,31,Y,MILD,RECOVERED,DOSE REDUCED,NOT RELATED,N,Y,,Respiratory disorders,258
VIRALBLOCK01,AE,VIRALBLOCK01-258,1,Cough,2023-01-13,2023-01-31,13,31,Y,MILD,RECOVERED,DOSE REDUCED,NOT RELATED,UNKNOWN,Y,,Respiratory disorders,258
VIRALBLOCK01,AE,VIRALBLOCK01-258,1,Cough,2023-01-13,2023-01-31,13,31,Y,MILD,RECOVERED,DOSE REDUCED,NOT RELATED,Y,Y,,Respiratory disorders,258
VIRALBLOCK01,AE,VIRALBLOCK01-259,1,Nausea,2023-01-17,2023-01-26,17,26,N,MILD,RECOVERED,DOSE REDUCED,RELATED,UNKNOWN,,,Gastrointestinal disorders,259
VIRALBLOCK01,AE,VIRALBLOCK01-259,1,Nausea,2023-01-17,2023-01-26,17,26,N,MILD,RECOVERED,DOSE REDUCED,RELATED,Y,,,Gastrointestinal disorders,259
VIRALBLOCK01,AE,VIRALBLOCK01-259,1,Nausea,2023-01-17,2023-01-26,17,26,N,MILD,RECOVERED,DOSE REDUCED,RELATED,N,,,Gastrointestinal disorders,259
VIRALBLOCK01,AE,VIRALBLOCK01-260,1,Fever,2023-01-09,2023-01-25,9,25,Y,SEVERE,RECOVERED,DRUG WITHDRAWN,POSSIBLY RELATED,Y,,,General disorders and administration site conditions,260
VIRALBLOCK01,AE,VIRALBLOCK01-260,1,Fever,2023-01-09,2023-01-25,9,25,Y,SEVERE,RECOVERED,DRUG WITHDRAWN,POSSIBLY RELATED,N,,,General disorders and administration site conditions,260
VIRALBLOCK01,AE,VIRALBLOCK01-260,1,Fever,2023-01-09,2023-01-25,9,25,Y,SEVERE,RECOVERED,DRUG WITHDRAWN,POSSIBLY RELATED,UNKNOWN,,,General disorders and administration site conditions,260
VIRALBLOCK01,AE,VIRALBLOCK01-264,1,Headache,2023-01-14,2023-02-04,14,35,N,MILD,RECOVERED,DOSE REDUCED,NOT RELATED,N,Y,,Nervous system disorders,264
VIRALBLOCK01,AE,VIRALBLOCK01-264,1,Headache,2023-01-14,2023-02-04,14,35,N,MILD,RECOVERED,DOSE REDUCED,NOT RELATED,Y,Y,,Nervous system disorders,264
VIRALBLOCK01,AE,VIRALBLOCK01-264,1,Headache,2023-01-14,2023-02-04,14,35,N,MILD,RECOVERED,DOSE REDUCED,NOT RELATED,UNKNOWN,Y,,Nervous system disorders,264
VIRALBLOCK01,AE,VIRALBLOCK01-264,1,Rash,2023-01-22,2023-01-27,22,27,N,MILD,RECOVERED,DRUG WITHDRAWN,POSSIBLY RELATED,UNKNOWN,,,Skin and subcutaneous tissue disorders,264
VIRALBLOCK01,AE,VIRALBLOCK01-264,1,Rash,2023-01-22,2023-01-27,22,27,N,MILD,RECOVERED,DRUG WITHDRAWN,POSSIBLY RELATED,Y,,,Skin and subcutaneous tissue disorders,264
VIRALBLOCK01,AE,VIRALBLOCK01-264,1,Rash,2023-01-22,2023-01-27,22,27,N,MILD,RECOVERED,DRUG WITHDRAWN,POSSIBLY RELATED,N,,,Skin and subcutaneous tissue disorders,264
VIRALBLOCK01,AE,VIRALBLOCK01-265,1,Rash,2023-01-15,2023-02-01,15,32,N,SEVERE,RECOVERED,DOSE REDUCED,RELATED,UNKNOWN,Y,,Skin and subcutaneous tissue disorders,265
VIRALBLOCK01,AE,VIRALBLOCK01-265,1,Rash,2023-01-15,2023-02-01,15,32,N,SEVERE,RECOVERED,DOSE REDUCED,RELATED,N,Y,,Skin and subcutaneous tissue disorders,265
VIRALBLOCK01,AE,VIRALBLOCK01-265,1,Rash,2023-01-15,2023-02-01,15,32,N,SEVERE,RECOVERED,DOSE REDUCED,RELATED,Y,Y,,Skin and subcutaneous tissue disorders,265
VIRALBLOCK01,AE,VIRALBLOCK01-266,1,Nausea,2023-01-09,2023-01-27,9,27,N,MILD,NOT RECOVERED,NONE,NOT RELATED,N,,,Gastrointestinal disorders,266
VIRALBLOCK01,AE,VIRALBLOCK01-266,1,Nausea,2023-01-09,2023-01-27,9,27,N,MILD,NOT RECOVERED,NONE,NOT RELATED,Y,,,Gastrointestinal disorders,266
VIRALBLOCK01,AE,VIRALBLOCK01-266,1,Nausea,2023-01-09,2023-01-27,9,27,N,MILD,NOT RECOVERED,NONE,NOT RELATED,UNKNOWN,,,Gastrointestinal disorders,266
VIRALBLOCK01,AE,VIRALBLOCK01-266,1,Nausea,2023-01-13,2023-01-25,13,25,N,MILD,RECOVERED,DRUG WITHDRAWN,NOT RELATED,UNKNOWN,Y,,Gastrointestinal disorders,266
VIRALBLOCK01,AE,VIRALBLOCK01-266,1,Nausea,2023-01-13,2023-01-25,13,25,N,MILD,RECOVERED,DRUG WITHDRAWN,NOT RELATED,N,Y,,Gastrointestinal disorders,266
VIRALBLOCK01,AE,VIRALBLOCK01-266,1,Nausea,2023-01-13,2023-01-25,13,25,N,MILD,RECOVERED,DRUG WITHDRAWN,NOT RELATED,Y,Y,,Gastrointestinal disorders,266
VIRALBLOCK01,AE,VIRALBLOCK01-267,1,Fever,2023-01-08,2023-01-23,8,23,N,MILD,RECOVERED,DOSE REDUCED,POSSIBLY RELATED,UNKNOWN,,,General disorders and administration site conditions,267
VIRALBLOCK01,AE,VIRALBLOCK01-267,1,Fever,2023-01-08,2023-01-23,8,23,N,MILD,RECOVERED,DOSE REDUCED,POSSIBLY RELATED,Y,,,General disorders and administration site conditions,267
VIRALBLOCK01,AE,VIRALBLOCK01-267,1,Fever,2023-01-08,2023-01-23,8,23,N,MILD,RECOVERED,DOSE REDUCED,POSSIBLY RELATED,N,,,General disorders and administration site conditions,267
VIRALBLOCK01,AE,VIRALBLOCK01-270,1,Fever,2023-01-13,2023-02-04,13,35,N,MILD,RECOVERED,NONE,RELATED,Y,,,General disorders and administration site conditions,270
VIRALBLOCK01,AE,VIRALBLOCK01-270,1,Fever,2023-01-13,2023-02-04,13,35,N,MILD,RECOVERED,NONE,RELATED,N,,,General disorders and administration site conditions,270
VIRALBLOCK01,AE,VIRALBLOCK01-270,1,Fever,2023-01-13,2023-02-04,13,35,N,MILD,RECOVERED,NONE,RELATED,UNKNOWN,,,General disorders and administration site conditions,270
VIRALBLOCK01,AE,VIRALBLOCK01-273,1,Rash,2023-01-16,2023-02-06,16,37,N,MILD,NOT RECOVERED,NONE,NOT RELATED,Y,Y,,Skin and subcutaneous tissue disorders,273
VIRALBLOCK01,AE,VIRALBLOCK01-273,1,Rash,2023-01-16,2023-02-06,16,37,N,MILD,NOT RECOVERED,NONE,NOT RELATED,N,Y,,Skin and subcutaneous tissue disorders,273
VIRALBLOCK01,AE,VIRALBLOCK01-273,1,Rash,2023-01-16,2023-02-06,16,37,N,MILD,NOT RECOVERED,NONE,NOT RELATED,UNKNOWN,Y,,Skin and subcutaneous tissue disorders,273
VIRALBLOCK01,AE,VIRALBLOCK01-273,1,Rash,2023-01-20,2023-02-05,20,36,N,SEVERE,RECOVERING,DRUG WITHDRAWN,POSSIBLY RELATED,Y,,,Skin and subcutaneous tissue disorders,273
VIRALBLOCK01,AE,VIRALBLOCK01-273,1,Rash,2023-01-20,2023-02-05,20,36,N,SEVERE,RECOVERING,DRUG WITHDRAWN,POSSIBLY RELATED,UNKNOWN,,,Skin and subcutaneous tissue disorders,273
VIRALBLOCK01,AE,VIRALBLOCK01-273,1,Rash,2023-01-20,2023-02-05,20,36,N,SEVERE,RECOVERING,DRUG WITHDRAWN,POSSIBLY RELATED,N,,,Skin and subcutaneous tissue disorders,273
VIRALBLOCK01,AE,VIRALBLOCK01-273,1,Rash,2023-01-22,2023-01-26,22,26,N,MILD,RECOVERED,DOSE REDUCED,RELATED,UNKNOWN,,,Skin and subcutaneous tissue disorders,273
VIRALBLOCK01,AE,VIRALBLOCK01-273,1,Rash,2023-01-22,2023-01-26,22,26,N,MILD,RECOVERED,DOSE REDUCED,RELATED,Y,,,Skin and subcutaneous tissue disorders,273
VIRALBLOCK01,AE,VIRALBLOCK01-273,1,Rash,2023-01-22,2023-01-26,22,26,N,MILD,RECOVERED,DOSE REDUCED,RELATED,N,,,Skin and subcutaneous tissue disorders,273
VIRALBLOCK01,AE,VIRALBLOCK01-274,1,Headache,2023-01-12,2023-02-04,12,35,Y,MODERATE,RECOVERED,NONE,NOT RELATED,UNKNOWN,,,Nervous system disorders,274
VIRALBLOCK01,AE,VIRALBLOCK01-274,1,Headache,2023-01-12,2023-02-04,12,35,Y,MODERATE,RECOVERED,NONE,NOT RELATED,Y,,,Nervous system disorders,274
VIRALBLOCK01,AE,VIRALBLOCK01-274,1,Headache,2023-01-12,2023-02-04,12,35,Y,MODERATE,RECOVERED,NONE,NOT RELATED,N,,,Nervous system disorders,274
VIRALBLOCK01,AE,VIRALBLOCK01-274,1,Nausea,2023-01-18,2023-02-03,18,34,N,MODERATE,RECOVERED,DRUG WITHDRAWN,POSSIBLY RELATED,Y,Y,,Gastrointestinal disorders,274
VIRALBLOCK01,AE,VIRALBLOCK01-274,1,Nausea,2023-01-18,2023-02-03,18,34,N,MODERATE,RECOVERED,DRUG WITHDRAWN,POSSIBLY RELATED,N,Y,,Gastrointestinal disorders,274
VIRALBLOCK01,AE,VIRALBLOCK01-274,1,Nausea,2023-01-18,2023-02-03,18,34,N,MODERATE,RECOVERED,DRUG WITHDRAWN,POSSIBLY RELATED,UNKNOWN,Y,,Gastrointestinal disorders,274
VIRALBLOCK01,AE,VIRALBLOCK01-275,1,Nausea,2023-01-03,2023-01-21,3,21,N,MODERATE,RECOVERED,DOSE REDUCED,POSSIBLY RELATED,N,,,Gastrointestinal disorders,275
VIRALBLOCK01,AE,VIRALBLOCK01-275,1,Nausea,2023-01-03,2023-01-21,3,21,N,MODERATE,RECOVERED,DOSE REDUCED,POSSIBLY RELATED,Y,,,Gastrointestinal disorders,275
VIRALBLOCK01,AE,VIRALBLOCK01-275,1,Nausea,2023-01-03,2023-01-21,3,21,N,MODERATE,RECOVERED,DOSE REDUCED,POSSIBLY RELATED,UNKNOWN,,,Gastrointestinal disorders,275
VIRALBLOCK01,AE,VIRALBLOCK01-275,1,Fatigue,2023-01-07,2023-01-26,7,26,N,SEVERE,NOT RECOVERED,DOSE REDUCED,NOT RELATED,N,Y,,General disorders and administration site conditions,275
VIRALBLOCK01,AE,VIRALBLOCK01-275,1,Fatigue,2023-01-07,2023-01-26,7,26,N,SEVERE,NOT RECOVERED,DOSE REDUCED,NOT RELATED,UNKNOWN,Y,,General disorders and administration site conditions,275
VIRALBLOCK01,AE,VIRALBLOCK01-275,1,Fatigue,2023-01-07,2023-01-26,7,26,N,SEVERE,NOT RECOVERED,DOSE REDUCED,NOT RELATED,Y,Y,,General disorders and administration site conditions,275
VIRALBLOCK01,AE,VIRALBLOCK01-275,1,Cough,2023-01-13,2023-01-27,13,27,N,MODERATE,RECOVERING,DOSE REDUCED,RELATED,N,Y,,Respiratory disorders,275
VIRALBLOCK01,AE,VIRALBLOCK01-275,1,Cough,2023-01-13,2023-01-27,13,27,N,MODERATE,RECOVERING,DOSE REDUCED,RELATED,UNKNOWN,Y,,Respiratory disorders,275
VIRALBLOCK01,AE,VIRALBLOCK01-275,1,Cough,2023-01-13,2023-01-27,13,27,N,MODERATE,RECOVERING,DOSE REDUCED,RELATED,Y,Y,,Respiratory disorders,275
VIRALBLOCK01,AE,VIRALBLOCK01-277,1,Cough,2023-01-08,2023-01-28,8,28,N,MODERATE,RECOVERED,NONE,RELATED,Y,Y,,Respiratory disorders,277
VIRALBLOCK01,AE,VIRALBLOCK01-277,1,Cough,2023-01-08,2023-01-28,8,28,N,MODERATE,RECOVERED,NONE,RELATED,N,Y,,Respiratory disorders,277
VIRALBLOCK01,AE,VIRALBLOCK01-277,1,Cough,2023-01-08,2023-01-28,8,28,N,MODERATE,RECOVERED,NONE,RELATED,UNKNOWN,Y,,Respiratory disorders,277
VIRALBLOCK01,AE,VIRALBLOCK01-277,1,Cough,2023-01-11,2023-01-22,11,22,N,MODERATE,RECOVERED,NONE,RELATED,UNKNOWN,Y,,Respiratory disorders,277
VIRALBLOCK01,AE,VIRALBLOCK01-277,1,Cough,2023-01-11,2023-01-22,11,22,N,MODERATE,RECOVERED,NONE,RELATED,N,Y,,Respiratory disorders,277
VIRALBLOCK01,AE,VIRALBLOCK01-277,1,Cough,2023-01-11,2023-01-22,11,22,N,MODERATE,RECOVERED,NONE,RELATED,Y,Y,,Respiratory disorders,277
VIRALBLOCK01,AE,VIRALBLOCK01-278,1,Nausea,2023-01-10,2023-01-28,10,28,N,MILD,RECOVERED,DOSE REDUCED,NOT RELATED,UNKNOWN,,,Gastrointestinal disorders,278
VIRALBLOCK01,AE,VIRALBLOCK01-278,1,Nausea,2023-01-10,2023-01-28,10,28,N,MILD,RECOVERED,DOSE REDUCED,NOT RELATED,N,,,Gastrointestinal disorders,278
VIRALBLOCK01,AE,VIRALBLOCK01-278,1,Nausea,2023-01-10,2023-01-28,10,28,N,MILD,RECOVERED,DOSE REDUCED,NOT RELATED,Y,,,Gastrointestinal disorders,278
VIRALBLOCK01,AE,VIRALBLOCK01-278,1,Cough,2023-01-11,2023-02-04,11,35,N,SEVERE,RECOVERING,NONE,POSSIBLY RELATED,Y,Y,,Respiratory disorders,278
VIRALBLOCK01,AE,VIRALBLOCK01-278,1,Cough,2023-01-11,2023-02-04,11,35,N,SEVERE,RECOVERING,NONE,POSSIBLY RELATED,UNKNOWN,Y,,Respiratory disorders,278
VIRALBLOCK01,AE,VIRALBLOCK01-278,1,Cough,2023-01-11,2023-02-04,11,35,N,SEVERE,RECOVERING,NONE,POSSIBLY RELATED,N,Y,,Respiratory disorders,278
VIRALBLOCK01,AE,VIRALBLOCK01-278,1,Nausea,2023-01-12,2023-01-24,12,24,Y,MODERATE,RECOVERED,DOSE REDUCED,NOT RELATED,N,Y,,Gastrointestinal disorders,278
VIRALBLOCK01,AE,VIRALBLOCK01-278,1,Nausea,2023-01-12,2023-01-24,12,24,Y,MODERATE,RECOVERED,DOSE REDUCED,NOT RELATED,Y,Y,,Gastrointestinal disorders,278
VIRALBLOCK01,AE,VIRALBLOCK01-278,1,Nausea,2023-01-12,2023-01-24,12,24,Y,MODERATE,RECOVERED,DOSE REDUCED,NOT RELATED,UNKNOWN,Y,,Gastrointestinal disorders,278
VIRALBLOCK01,AE,VIRALBLOCK01-280,1,Fatigue,2023-01-07,2023-01-31,7,31,N,MILD,RECOVERED,DRUG WITHDRAWN,NOT RELATED,N,Y,,General disorders and administration site conditions,280
VIRALBLOCK01,AE,VIRALBLOCK01-280,1,Fatigue,2023-01-07,2023-01-31,7,31,N,MILD,RECOVERED,DRUG WITHDRAWN,NOT RELATED,UNKNOWN,Y,,General disorders and administration site conditions,280
VIRALBLOCK01,AE,VIRALBLOCK01-280,1,Fatigue,2023-01-07,2023-01-31,7,31,N,MILD,RECOVERED,DRUG WITHDRAWN,NOT RELATED,Y,Y,,General disorders and administration site conditions,280
VIRALBLOCK01,AE,VIRALBLOCK01-282,1,Rash,2023-01-20,2023-01-30,20,30,N,SEVERE,RECOVERED,DRUG WITHDRAWN,RELATED,Y,Y,,Skin and subcutaneous tissue disorders,282
VIRALBLOCK01,AE,VIRALBLOCK01-282,1,Rash,2023-01-20,2023-01-30,20,30,N,SEVERE,RECOVERED,DRUG WITHDRAWN,RELATED,N,Y,,Skin and subcutaneous tissue disorders,282
VIRALBLOCK01,AE,VIRALBLOCK01-282,1,Rash,2023-01-20,2023-01-30,20,30,N,SEVERE,RECOVERED,DRUG WITHDRAWN,RELATED,UNKNOWN,Y,,Skin and subcutaneous tissue disorders,282
VIRALBLOCK01,AE,VIRALBLOCK01-282,1,Fever,2023-01-23,2023-01-27,23,27,N,MILD,RECOVERING,DRUG WITHDRAWN,POSSIBLY RELATED,N,,,General disorders and administration site conditions,282
VIRALBLOCK01,AE,VIRALBLOCK01-282,1,Fever,2023-01-23,2023-01-27,23,27,N,MILD,RECOVERING,DRUG WITHDRAWN,POSSIBLY RELATED,Y,,,General disorders and administration site conditions,282
VIRALBLOCK01,AE,VIRALBLOCK01-282,1,Fever,2023-01-23,2023-01-27,23,27,N,MILD,RECOVERING,DRUG WITHDRAWN,POSSIBLY RELATED,UNKNOWN,,,General disorders and administration site conditions,282
VIRALBLOCK01,AE,VIRALBLOCK01-283,1,Fatigue,2023-01-20,2023-01-28,20,28,N,MODERATE,RECOVERED,DRUG WITHDRAWN,RELATED,Y,,,General disorders and administration site conditions,283
VIRALBLOCK01,AE,VIRALBLOCK01-283,1,Fatigue,2023-01-20,2023-01-28,20,28,N,MODERATE,RECOVERED,DRUG WITHDRAWN,RELATED,N,,,General disorders and administration site conditions,283
VIRALBLOCK01,AE,VIRALBLOCK01-283,1,Fatigue,2023-01-20,2023-01-28,20,28,N,MODERATE,RECOVERED,DRUG WITHDRAWN,RELATED,UNKNOWN,,,General disorders and administration site conditions,283
VIRALBLOCK01,AE,VIRALBLOCK01-285,1,Fever,2023-01-08,2023-01-19,8,19,Y,SEVERE,RECOVERING,NONE,POSSIBLY RELATED,UNKNOWN,,,General disorders and administration site conditions,285
VIRALBLOCK01,AE,VIRALBLOCK01-285,1,Fever,2023-01-08,2023-01-19,8,19,Y,SEVERE,RECOVERING,NONE,POSSIBLY RELATED,Y,,,General disorders and administration site conditions,285
VIRALBLOCK01,AE,VIRALBLOCK01-285,1,Fever,2023-01-08,2023-01-19,8,19,Y,SEVERE,RECOVERING,NONE,POSSIBLY RELATED,N,,,General disorders and administration site conditions,285
VIRALBLOCK01,AE,VIRALBLOCK01-287,1,Headache,2023-01-12,2023-01-28,12,28,N,MILD,RECOVERED,DOSE REDUCED,NOT RELATED,Y,,,Nervous system disorders,287
VIRALBLOCK01,AE,VIRALBLOCK01-287,1,Headache,2023-01-12,2023-01-28,12,28,N,MILD,RECOVERED,DOSE REDUCED,NOT RELATED,UNKNOWN,,,Nervous system disorders,287
VIRALBLOCK01,AE,VIRALBLOCK01-287,1,Headache,2023-01-12,2023-01-28,12,28,N,MILD,RECOVERED,DOSE REDUCED,NOT RELATED,N,,,Nervous system disorders,287
VIRALBLOCK01,AE,VIRALBLOCK01-288,1,Nausea,2023-01-06,2023-01-28,6,28,N,MODERATE,RECOVERING,DOSE REDUCED,POSSIBLY RELATED,UNKNOWN,Y,,Gastrointestinal disorders,288
VIRALBLOCK01,AE,VIRALBLOCK01-288,1,Nausea,2023-01-06,2023-01-28,6,28,N,MODERATE,RECOVERING,DOSE REDUCED,POSSIBLY RELATED,N,Y,,Gastrointestinal disorders,288
VIRALBLOCK01,AE,VIRALBLOCK01-288,1,Nausea,2023-01-06,2023-01-28,6,28,N,MODERATE,RECOVERING,DOSE REDUCED,POSSIBLY RELATED,Y,Y,,Gastrointestinal disorders,288
VIRALBLOCK01,AE,VIRALBLOCK01-288,1,Headache,2023-01-15,2023-01-28,15,28,N,MODERATE,RECOVERED,NONE,NOT RELATED,Y,,,Nervous system disorders,288
VIRALBLOCK01,AE,VIRALBLOCK01-288,1,Headache,2023-01-15,2023-01-28,15,28,N,MODERATE,RECOVERED,NONE,NOT RELATED,UNKNOWN,,,Nervous system disorders,288
VIRALBLOCK01,AE,VIRALBLOCK01-288,1,Headache,2023-01-15,2023-01-28,15,28,N,MODERATE,RECOVERED,NONE,NOT RELATED,N,,,Nervous system disorders,288
VIRALBLOCK01,AE,VIRALBLOCK01-290,1,Cough,2023-01-11,2023-02-03,11,34,N,SEVERE,RECOVERED,DRUG WITHDRAWN,NOT RELATED,N,Y,,Respiratory disorders,290
VIRALBLOCK01,AE,VIRALBLOCK01-290,1,Cough,2023-01-11,2023-02-03,11,34,N,SEVERE,RECOVERED,DRUG WITHDRAWN,NOT RELATED,UNKNOWN,Y,,Respiratory disorders,290
VIRALBLOCK01,AE,VIRALBLOCK01-290,1,Cough,2023-01-11,2023-02-03,11,34,N,SEVERE,RECOVERED,DRUG WITHDRAWN,NOT RELATED,Y,Y,,Respiratory disorders,290
VIRALBLOCK01,AE,VIRALBLOCK01-290,1,Rash,2023-01-12,2023-02-04,12,35,N,MILD,RECOVERED,DOSE REDUCED,RELATED,N,,,Skin and subcutaneous tissue disorders,290
VIRALBLOCK01,AE,VIRALBLOCK01-290,1,Rash,2023-01-12,2023-02-04,12,35,N,MILD,RECOVERED,DOSE REDUCED,RELATED,Y,,,Skin and subcutaneous tissue disorders,290
VIRALBLOCK01,AE,VIRALBLOCK01-290,1,Rash,2023-01-12,2023-02-04,12,35,N,MILD,RECOVERED,DOSE REDUCED,RELATED,UNKNOWN,,,Skin and subcutaneous tissue disorders,290
VIRALBLOCK01,AE,VIRALBLOCK01-292,1,Nausea,2023-01-17,2023-01-24,17,24,N,MODERATE,RECOVERED,DOSE REDUCED,RELATED,UNKNOWN,Y,,Gastrointestinal disorders,292
VIRALBLOCK01,AE,VIRALBLOCK01-292,1,Nausea,2023-01-17,2023-01-24,17,24,N,MODERATE,RECOVERED,DOSE REDUCED,RELATED,N,Y,,Gastrointestinal disorders,292
VIRALBLOCK01,AE,VIRALBLOCK01-292,1,Nausea,2023-01-17,2023-01-24,17,24,N,MODERATE,RECOVERED,DOSE REDUCED,RELATED,Y,Y,,Gastrointestinal disorders,292
VIRALBLOCK01,AE,VIRALBLOCK01-293,1,Fever,2023-01-13,2023-01-31,13,31,N,MODERATE,RECOVERING,DOSE REDUCED,RELATED,UNKNOWN,,,General disorders and administration site conditions,293
VIRALBLOCK01,AE,VIRALBLOCK01-293,1,Fever,2023-01-13,2023-01-31,13,31,N,MODERATE,RECOVERING,DOSE REDUCED,RELATED,N,,,General disorders and administration site conditions,293
VIRALBLOCK01,AE,VIRALBLOCK01-293,1,Fever,2023-01-13,2023-01-31,13,31,N,MODERATE,RECOVERING,DOSE REDUCED,RELATED,Y,,,General disorders and administration site conditions,293
VIRALBLOCK01,AE,VIRALBLOCK01-293,1,Fever,2023-01-20,2023-02-06,20,37,Y,MODERATE,RECOVERING,DOSE REDUCED,RELATED,N,Y,,General disorders and administration site conditions,293
VIRALBLOCK01,AE,VIRALBLOCK01-293,1,Fever,2023-01-20,2023-02-06,20,37,Y,MODERATE,RECOVERING,DOSE REDUCED,RELATED,UNKNOWN,Y,,General disorders and administration site conditions,293
VIRALBLOCK01,AE,VIRALBLOCK01-293,1,Fever,2023-01-20,2023-02-06,20,37,Y,MODERATE,RECOVERING,DOSE REDUCED,RELATED,Y,Y,,General disorders and administration site conditions,293
VIRALBLOCK01,AE,VIRALBLOCK01-295,1,Nausea,2023-01-13,2023-01-27,13,27,N,MILD,RECOVERING,DRUG WITHDRAWN,POSSIBLY RELATED,N,Y,,Gastrointestinal disorders,295
VIRALBLOCK01,AE,VIRALBLOCK01-295,1,Nausea,2023-01-13,2023-01-27,13,27,N,MILD,RECOVERING,DRUG WITHDRAWN,POSSIBLY RELATED,Y,Y,,Gastrointestinal disorders,295
VIRALBLOCK01,AE,VIRALBLOCK01-295,1,Nausea,2023-01-13,2023-01-27,13,27,N,MILD,RECOVERING,DRUG WITHDRAWN,POSSIBLY RELATED,UNKNOWN,Y,,Gastrointestinal disorders,295
VIRALBLOCK01,AE,VIRALBLOCK01-295,1,Nausea,2023-01-18,2023-01-19,18,19,N,MILD,RECOVERED,NONE,NOT RELATED,UNKNOWN,Y,,Gastrointestinal disorders,295
VIRALBLOCK01,AE,VIRALBLOCK01-295,1,Nausea,2023-01-18,2023-01-19,18,19,N,MILD,RECOVERED,NONE,NOT RELATED,N,Y,,Gastrointestinal disorders,295
VIRALBLOCK01,AE,VIRALBLOCK01-295,1,Nausea,2023-01-18,2023-01-19,18,19,N,MILD,RECOVERED,NONE,NOT RELATED,Y,Y,,Gastrointestinal disorders,295
VIRALBLOCK01,AE,VIRALBLOCK01-296,1,Cough,2023-01-10,2023-01-24,10,24,N,MODERATE,RECOVERING,NONE,NOT RELATED,Y,,,Respiratory disorders,296
VIRALBLOCK01,AE,VIRALBLOCK01-296,1,Cough,2023-01-10,2023-01-24,10,24,N,MODERATE,RECOVERING,NONE,NOT RELATED,N,,,Respiratory disorders,296
VIRALBLOCK01,AE,VIRALBLOCK01-296,1,Cough,2023-01-10,2023-01-24,10,24,N,MODERATE,RECOVERING,NONE,NOT RELATED,UNKNOWN,,,Respiratory disorders,296
VIRALBLOCK01,AE,VIRALBLOCK01-296,1,Nausea,2023-01-16,2023-01-28,16,28,N,SEVERE,RECOVERED,NONE,POSSIBLY RELATED,Y,,,Gastrointestinal disorders,296
VIRALBLOCK01,AE,VIRALBLOCK01-296,1,Nausea,2023-01-16,2023-01-28,16,28,N,SEVERE,RECOVERED,NONE,POSSIBLY RELATED,N,,,Gastrointestinal disorders,296
VIRALBLOCK01,AE,VIRALBLOCK01-296,1,Nausea,2023-01-16,2023-01-28,16,28,N,SEVERE,RECOVERED,NONE,POSSIBLY RELATED,UNKNOWN,,,Gastrointestinal disorders,296
VIRALBLOCK01,AE,VIRALBLOCK01-297,1,Rash,2023-01-11,2023-01-23,11,23,N,MILD,RECOVERED,DOSE REDUCED,RELATED,Y,,,Skin and subcutaneous tissue disorders,297
VIRALBLOCK01,AE,VIRALBLOCK01-297,1,Rash,2023-01-11,2023-01-23,11,23,N,MILD,RECOVERED,DOSE REDUCED,RELATED,UNKNOWN,,,Skin and subcutaneous tissue disorders,297
VIRALBLOCK01,AE,VIRALBLOCK01-297,1,Rash,2023-01-11,2023-01-23,11,23,N,MILD,RECOVERED,DOSE REDUCED,RELATED,N,,,Skin and subcutaneous tissue disorders,297
VIRALBLOCK01,AE,VIRALBLOCK01-297,1,Cough,2023-01-14,2023-02-03,14,34,N,MODERATE,RECOVERED,DRUG WITHDRAWN,NOT RELATED,N,Y,,Respiratory disorders,297
VIRALBLOCK01,AE,VIRALBLOCK01-297,1,Cough,2023-01-14,2023-02-03,14,34,N,MODERATE,RECOVERED,DRUG WITHDRAWN,NOT RELATED,Y,Y,,Respiratory disorders,297
VIRALBLOCK01,AE,VIRALBLOCK01-297,1,Cough,2023-01-14,2023-02-03,14,34,N,MODERATE,RECOVERED,DRUG WITHDRAWN,NOT RELATED,UNKNOWN,Y,,Respiratory disorders,297
VIRALBLOCK01,AE,VIRALBLOCK01-297,1,Nausea,2023-01-14,2023-01-25,14,25,N,MILD,RECOVERING,DOSE REDUCED,RELATED,UNKNOWN,,,Gastrointestinal disorders,297
VIRALBLOCK01,AE,VIRALBLOCK01-297,1,Nausea,2023-01-14,2023-01-25,14,25,N,MILD,RECOVERING,DOSE REDUCED,RELATED,Y,,,Gastrointestinal disorders,297
VIRALBLOCK01,AE,VIRALBLOCK01-297,1,Nausea,2023-01-14,2023-01-25,14,25,N,MILD,RECOVERING,DOSE REDUCED,RELATED,N,,,Gastrointestinal disorders,297
VIRALBLOCK01,AE,VIRALBLOCK01-298,1,Fever,2023-01-15,2023-02-02,15,33,N,MILD,RECOVERING,DRUG WITHDRAWN,RELATED,Y,,,General disorders and administration site conditions,298
VIRALBLOCK01,AE,VIRALBLOCK01-298,1,Fever,2023-01-15,2023-02-02,15,33,N,MILD,RECOVERING,DRUG WITHDRAWN,RELATED,N,,,General disorders and administration site conditions,298
VIRALBLOCK01,AE,VIRALBLOCK01-298,1,Fever,2023-01-15,2023-02-02,15,33,N,MILD,RECOVERING,DRUG WITHDRAWN,RELATED,UNKNOWN,,,General disorders and administration site conditions,298
VIRALBLOCK01,AE,VIRALBLOCK01-298,1,Fever,2023-01-22,2023-02-08,22,39,Y,MILD,RECOVERING,DOSE REDUCED,POSSIBLY RELATED,UNKNOWN,,,General disorders and administration site conditions,298
VIRALBLOCK01,AE,VIRALBLOCK01-298,1,Fever,2023-01-22,2023-02-08,22,39,Y,MILD,RECOVERING,DOSE REDUCED,POSSIBLY RELATED,N,,,General disorders and administration site conditions,298
VIRALBLOCK01,AE,VIRALBLOCK01-298,1,Fever,2023-01-22,2023-02-08,22,39,Y,MILD,RECOVERING,DOSE REDUCED,POSSIBLY RELATED,Y,,,General disorders and administration site conditions,298
VIRALBLOCK01,AE,VIRALBLOCK01-298,1,Cough,2023-01-24,2023-01-30,24,30,N,MODERATE,RECOVERING,DRUG WITHDRAWN,POSSIBLY RELATED,Y,,,Respiratory disorders,298
VIRALBLOCK01,AE,VIRALBLOCK01-298,1,Cough,2023-01-24,2023-01-30,24,30,N,MODERATE,RECOVERING,DRUG WITHDRAWN,POSSIBLY RELATED,UNKNOWN,,,Respiratory disorders,298
VIRALBLOCK01,AE,VIRALBLOCK01-298,1,Cough,2023-01-24,2023-01-30,24,30,N,MODERATE,RECOVERING,DRUG WITHDRAWN,POSSIBLY RELATED,N,,,Respiratory disorders,298
VIRALBLOCK01,AE,VIRALBLOCK01-299,1,Cough,2023-01-15,2023-01-24,15,24,N,MODERATE,NOT RECOVERED,DOSE REDUCED,NOT RELATED,Y,,,Respiratory disorders,299
VIRALBLOCK01,AE,VIRALBLOCK01-299,1,Cough,2023-01-15,2023-01-24,15,24,N,MODERATE,NOT RECOVERED,DOSE REDUCED,NOT RELATED,UNKNOWN,,,Respiratory disorders,299
VIRALBLOCK01,AE,VIRALBLOCK01-299,1,Cough,2023-01-15,2023-01-24,15,24,N,MODERATE,NOT RECOVERED,DOSE REDUCED,NOT RELATED,N,,,Respiratory disorders,299
VIRALBLOCK01,AE,VIRALBLOCK01-300,1,Nausea,2023-01-15,2023-01-24,15,24,N,MILD,RECOVERING,DOSE REDUCED,RELATED,Y,,,Gastrointestinal disorders,300
VIRALBLOCK01,AE,VIRALBLOCK01-300,1,Nausea,2023-01-15,2023-01-24,15,24,N,MILD,RECOVERING,DOSE REDUCED,RELATED,N,,,Gastrointestinal disorders,300
VIRALBLOCK01,AE,VIRALBLOCK01-300,1,Nausea,2023-01-15,2023-01-24,15,24,N,MILD,RECOVERING,DOSE REDUCED,RELATED,UNKNOWN,,,Gastrointestinal disorders,300
